mission_id,time,target_x,target_y,target_z,real_x,real_y,real_z,vx,vy,vz,ax,ay,az,roll,pitch,yaw,wind_x,wind_y,wind_z,erreur_m,erreur_ok,velocity,erreur_cumulee_m,battery_level,rain,fog,snow
1,1747142948.3873303,2.0,0.0,-5,2.298980951309204,-0.0555686317384243,-4.94622802734375,0.6935111284255981,0.15471328794956207,-0.27323421835899353,-0.02430303767323494,0.05443781241774559,-9.00921630859375,-0.13187272113330056,0.04281517381947524,-3.129089980264654,3.0673056037656616,1.7630270876048852,0.5360240059643151,0.30881856667367297,True,6.08,0.30881856667367297,100,0.12,0.147,0.137
1,1747142950.6732805,2.197817453308123,1.1779369011450798,-4,2.3048579692840576,1.3375966548919678,-3.8582687377929688,-0.46184492111206055,0.4461880922317505,0.16285479068756104,-0.11013013124465942,-0.018443312495946884,-10.637120246887207,0.0487755559085513,0.1284545564335811,-3.1173450031553425,2.7159784620962317,2.3176788771985013,0.5696466650362431,0.23882349070748765,True,6.08,0.5476420573811607,100,0.12,0.147,0.137
1,1747142952.5418017,2.1482208132215868,2.4646321509654174,-3,1.7708206176757812,2.4797489643096924,-2.9587783813476562,0.3397143483161926,0.25699296593666077,0.08037582784891129,-0.07380019873380661,-0.12385699152946472,-10.150059700012207,0.037489673010885606,0.08762032200470339,3.1225026482981564,3.144523462364096,2.327594262714614,0.432612576657299,0.3799455849039664,True,6.08,0.927587642285127,100,0.12,0.147,0.137
1,1747142954.8490076,1.8081204253903274,3.7673112991572864,-2,2.1214635372161865,3.723750591278076,-1.9686126708984375,-0.2693434953689575,0.35562869906425476,0.027267763391137123,-0.14097005128860474,-0.01601061411201954,-10.120312690734863,-0.0035331766286156277,0.09573607332269524,3.1129973752938964,3.204474012330005,1.5345947704738903,0.4038982658396308,0.31790974415355777,True,6.08,1.245497386438685,100,0.12,0.147,0.137
1,1747142956.8835304,1.169091277972464,4.978795995661454,-1,1.057718276977539,4.846004486083984,-1.0547332763671875,-0.29001888632774353,0.40090516209602356,0.1642218977212906,-0.00640801340341568,0.0413905531167984,-10.246870994567871,0.07447265877951804,0.08523106718517001,3.1208842648500137,2.504931575246804,1.716045422926932,0.4902669832512871,0.1817505485778945,True,6.08,1.4272479350165794,100,0.12,0.147,0.137
1,1747142958.7726684,0.2615553275524854,5.990213290134131,0,0.3244721591472626,5.891079425811768,-0.07434844970703125,-0.21519091725349426,0.3629140555858612,0.20867402851581573,-0.04038405045866966,-0.05481715500354767,-10.446624755859375,0.04050608402368913,0.08577259364758516,3.1136206064295777,2.6153374618955114,2.1254647953611894,0.40383270860660425,0.1389738922504843,True,6.08,1.5662218272670638,100,0.12,0.147,0.137
1,1747142960.275525,-0.8455795490339945,6.704726066290929,1,0.20056012272834778,6.274831771850586,0.35236358642578125,-0.08238282054662704,0.3500748872756958,0.636640727519989,-0.07066535949707031,0.004567943513393402,-9.512493133544922,0.0005912740080884307,0.001419540079258059,3.1176598924200607,2.541609787619103,2.4396869742455425,0.4444381502142632,1.3033227694683533,True,6.08,2.869544596735417,100,0.12,0.147,0.137
1,1747142960.7802901,-2.049999999999999,7.050704155516199,2,0.19253851473331451,6.421092510223389,0.6597442626953125,-0.09142500162124634,0.48328718543052673,0.7410532832145691,-0.09711553901433945,0.028785791248083115,-9.629395484924316,0.0005002437482853024,0.0007477878043331189,3.1170624135356086,3.124278967471271,2.2021330882793455,0.5584357556233601,2.687317483165833,False,6.08,5.55686207990125,100,0.12,0.147,0.137
1,1747142961.2841444,-3.2254282360512363,6.992760046192045,3,0.1716875284910202,6.640979290008545,1.014556884765625,-0.10984458029270172,0.6286668181419373,0.7740708589553833,-0.11046136915683746,-2.561323344707489e-05,-9.822153091430664,0.0002984207030271786,0.0004864390001027395,3.116645654682092,2.8783374834168547,1.9919186504621276,0.5575246678370174,3.950459414037073,False,6.08,9.507321493938322,100,0.12,0.147,0.137
1,1747142961.787855,-4.234553679141369,6.539253573852523,4,0.12682220339775085,6.967672348022461,1.3994064331054688,-0.137074813246727,0.8011148571968079,0.7692642211914062,-0.11269254982471466,-0.021027402952313423,-9.861761093139648,6.086256735199519e-05,0.000232880198184614,3.116473518761097,3.2177310305652775,2.456879111388335,0.4474708955603625,5.0959031716692165,False,6.08,14.603224665607538,100,0.12,0.147,0.137
1,1747142962.291249,-4.944154131125643,5.745211330880874,5,0.05603991076350212,7.3957085609436035,1.7837677001953125,-0.16640372574329376,0.9808166027069092,0.7549511790275574,-0.09613656997680664,-0.012241799384355545,-9.864763259887695,4.127653945304524e-05,5.996635879508885e-05,3.1166499471561795,3.4429104390115564,1.687769625441339,0.47121826875310335,6.170107922013633,False,6.08,20.77333258762117,100,0.12,0.147,0.137
1,1747142962.7954369,-5.240803378993181,4.710075989266278,6,-0.04466623067855835,7.945252895355225,2.1711578369140625,-0.21570120751857758,1.1830557584762573,0.734637975692749,0.011976014822721481,-0.12246856838464737,-9.891443252563477,-7.719108179706852e-05,-7.473684813077408e-05,3.1169417717828116,2.810582143581623,2.117992795799858,0.4468992207154685,7.219850634716142,False,6.08,27.99318322233731,100,0.12,0.147,0.137
1,1747142963.299221,-5.045425660253547,3.570251060941675,7,-0.17417018115520477,8.595502853393555,2.5432662963867188,-0.2677671015262604,1.3873913288116455,0.7140748500823975,-0.084866963326931,0.040894005447626114,-9.824689865112305,-9.257200445854856e-05,-7.424906397849591e-05,3.1172374164899836,2.871243653870105,1.825184531972132,0.41485223868797594,8.297274300944196,False,6.08,36.2904575232815,100,0.12,0.147,0.137
1,1747142963.8023484,-4.325006043795975,2.4869808471515746,8,-0.33539557456970215,9.367890357971191,2.9135894775390625,-0.3225058317184448,1.5987991094589233,0.7041863799095154,0.0050218477845191956,0.015458589419722557,-9.856646537780762,-0.00013611826971086192,-0.00010198186752529293,3.1175254206749767,2.79376722532764,2.14475892556511,0.5949374185122671,9.441158795150576,False,6.08,45.73161631843208,100,0.12,0.147,0.137
1,1747142964.3061028,-3.1000000000000028,1.630642496536482,9,-0.5259696245193481,10.249317169189453,3.277099609375,-0.37352418899536133,1.814494013786316,0.6960455775260925,-0.06780053675174713,-0.010747898370027542,-9.883655548095703,-8.161235484142323e-05,-0.00018572540387636535,3.117879717610859,3.032535924650667,1.5251845539070836,0.5089551314229832,10.661086922445698,False,6.08,56.39270324087778,100,0.12,0.147,0.137
1,1747142964.8103561,-1.4463860707160447,1.1629685708181468,10,-0.7555198073387146,11.294574737548828,3.6526870727539062,-0.4299245774745941,2.0406253337860107,0.6875244379043579,-0.08866988122463226,0.002123288344591856,-9.855474472045898,-0.00016401090971914642,-0.00013549106092439108,3.118096669994106,2.8085865518053064,1.8335439910797557,0.4062448450268839,11.975605250173933,False,6.08,68.3683084910517,100,0.12,0.147,0.137
1,1747142965.3155823,0.5081646363876857,1.2190141791679752,11,-0.9939185380935669,12.372812271118164,3.9989089965820312,-0.4806140661239624,2.2456443309783936,0.6875690221786499,-0.11373718827962875,-0.002318141981959343,-9.811967849731445,-5.334527508027745e-05,-0.0001482476577430576,3.118391359974702,2.939658939050423,2.2579355890378743,0.4684851005935364,13.25438572613576,False,6.08,81.62269421718747,100,0.12,0.147,0.137
1,1747142965.8195448,2.593921273001407,1.8907963846261513,12,-1.2390917539596558,13.480578422546387,4.324729919433594,-0.5219581127166748,2.4359548091888428,0.6905996799468994,-0.11211688816547394,0.00540256779640913,-9.842268943786621,-4.791901563186651e-05,-0.00013641895142564386,3.118616425524017,3.192463873375114,1.8762942890689713,0.5564519263197759,14.419598030492722,False,6.08,96.0422922476802,100,0.12,0.147,0.137
1,1747142966.322902,4.613824533754626,3.2144470297365793,13,-1.5337454080581665,14.842391014099121,4.6923980712890625,-0.5560802221298218,2.6496877670288086,0.6910537481307983,-0.09248079359531403,0.01034616306424141,-9.836334228515625,-5.212162214623482e-05,-5.089730383468196e-05,3.118881549816669,3.4903502518591947,1.932617104498461,0.5330363280187727,15.556926023442898,False,6.08,111.59921827112309,100,0.12,0.147,0.137
1,1747142966.826318,6.362038562233158,5.162435552910105,14,-1.8305929899215698,16.23624610900879,5.040626525878906,-0.5996554493904114,2.8496367931365967,0.6944347023963928,-0.07668741047382355,0.05729095637798309,-9.778406143188477,-2.4820916348384384e-06,-5.8629579819624114e-05,3.1190288932712376,2.821339239398128,1.8752936378108693,0.5054447047781392,16.432250759725783,False,6.08,128.03146903084888,100,0.12,0.147,0.137
1,1747142967.3300986,7.6445824462891245,7.641958604712762,15,-2.140110731124878,17.727584838867188,5.3916168212890625,-0.6220370531082153,3.0471742153167725,0.6980820894241333,-0.16317275166511536,0.030482374131679535,-9.816038131713867,-2.2396320281377348e-05,-0.00017526735041603145,3.119053685143557,3.487171388639771,2.150044195332749,0.5294087686158165,17.022958157151518,False,6.08,145.0544271880004,100,0.12,0.147,0.137
2,1747142969.061178,0,0,13,-3.291663408279419,23.589862823486328,6.603691101074219,-0.7017126679420471,3.7015223503112793,0.699302613735199,-0.06542547047138214,0.005856740288436413,-9.854583740234375,8.484161234228454e-05,-4.265800432876665e-05,3.1198805242231615,3.189661746689922,2.3989732774697603,0.4987720704138003,24.6623081554583,False,9.1,24.6623081554583,50,0.02,0.061,0.044
2,1747142969.5661132,2,0,12,-3.6441211700439453,25.463254928588867,6.948982238769531,-0.7254741787910461,3.8772616386413574,0.6996510028839111,-0.06087103486061096,0.05459023267030716,-9.808496475219727,-3.761771574688642e-05,-3.960238351627171e-05,3.119852393882113,3.2813983190524056,1.7688104164654916,0.4183737657526295,26.565884810499142,False,9.1,51.22819296595745,50,0.02,0.061,0.044
2,1747142970.0722048,4,0,11,-4.011940956115723,27.4235897064209,7.293983459472656,-0.7620713710784912,4.051687717437744,0.7006498575210571,-0.07183627784252167,0.061936985701322556,-9.884291648864746,7.399148052790772e-05,-6.648134397311235e-05,3.1198347450126054,2.6613987584997343,1.7356085544267532,0.5588783544216112,28.809356620186108,False,9.1,80.03754958614356,50,0.02,0.061,0.044
2,1747142970.5768542,6,0,10,-4.403674125671387,29.507755279541016,7.644523620605469,-0.8002942800521851,4.227207660675049,0.7002978324890137,-0.1319628804922104,0.008434638381004333,-9.811266899108887,2.1402872242004423e-05,2.1441777449543562e-05,3.119807568196052,2.5590915495187843,1.7920093732562754,0.4146740003923439,31.376620690003097,False,9.1,111.41417027614665,50,0.02,0.061,0.044
2,1747142971.0813322,8,0,9,-4.80460262298584,31.63947868347168,7.989013671875,-0.8231975436210632,4.403258800506592,0.7017143368721008,-0.09938476979732513,-0.04792328178882599,-9.873374938964844,-1.304688672701978e-05,2.4054097722788568e-05,3.1198900597670973,3.175846832575544,2.330790424609318,0.5187114206360691,34.14727738854286,False,9.1,145.56144766468952,50,0.02,0.061,0.044
2,1747142971.5864134,10,0,8,-5.228867530822754,33.89775848388672,8.340438842773438,-0.8531273007392883,4.579584121704102,0.7030622959136963,-0.08913757652044296,0.1166195496916771,-9.78836727142334,-4.303239593035821e-05,-8.488024815448793e-06,3.1197923099966043,3.0429794145890208,2.319758227711482,0.43859133632204733,37.16305067010687,False,9.1,182.7244983347964,50,0.02,0.061,0.044
2,1747142972.0911946,12,0,7,-5.661574363708496,36.197078704833984,8.685432434082031,-0.8857480883598328,4.735354423522949,0.7022983431816101,-0.009421132504940033,0.123426653444767,-9.756555557250977,1.3646202239595314e-06,-4.029349754301809e-05,3.119911515300849,2.883097034175088,1.6607006191239422,0.5417536362014753,40.31129368128251,False,9.1,223.03579201607891,50,0.02,0.061,0.044
2,1747142972.5948265,14,0,6,-6.15206241607666,38.79859924316406,9.062324523925781,-0.9266145825386047,4.918948650360107,0.7041224241256714,-0.0768594890832901,0.05585463345050812,-9.824843406677246,1.1343466777518306e-05,2.7409619237121735e-05,3.1198809970966908,2.5520337344376793,2.3483172461204878,0.484622605760329,43.827100683742906,False,9.1,266.8628926998218,50,0.02,0.061,0.044
2,1747142973.0985608,16,0,5,-6.614861965179443,41.26658248901367,9.410293579101562,-0.9421195983886719,5.071876525878906,0.7033421993255615,-0.09233709424734116,0.07381602376699448,-9.819783210754395,1.2259162110642475e-05,6.535811686576318e-05,3.119923915610489,3.4457815570653674,1.7960408673496255,0.41228486966289557,47.26323625695297,False,9.1,314.1261289567748,50,0.02,0.061,0.044
2,1747142973.6025941,18,0,4,-7.09874963760376,43.856449127197266,9.763725280761719,-0.9705898761749268,5.227988243103027,0.7021533846855164,-0.15926916897296906,0.13067874312400818,-9.802850723266602,-3.999777352267134e-05,-1.3884232288500808e-05,3.1200149901244147,2.9609356950912087,1.9750216774429221,0.4094242857513736,50.85819395662461,False,9.1,364.9843229133994,50,0.02,0.061,0.044
2,1747142974.1058905,20,0,3,-7.585480690002441,46.475765228271484,10.109519958496094,-0.992348849773407,5.374863624572754,0.7027965784072876,-0.10215042531490326,0.1488170027732849,-9.80575180053711,-1.1783650505613754e-06,-3.739036769526759e-07,3.1202071559367957,3.007828180547415,1.8702576061382947,0.5313227894997854,54.51147376921817,False,9.1,419.4957966826176,50,0.02,0.061,0.044
2,1747142974.6116745,22,0,2,-8.094255447387695,49.2160758972168,10.461067199707031,-1.0221987962722778,5.519106864929199,0.7024555206298828,-0.11414609104394913,0.06806568056344986,-9.75528335571289,2.171072022868916e-05,4.397519473414484e-06,3.120464173057045,2.763233761510281,1.6863317777474813,0.43855906602199374,58.3050254764646,False,9.1,477.8008221590822,50,0.02,0.061,0.044
2,1747142975.1152012,24,0,1,-8.616497039794922,52.030845642089844,10.812446594238281,-1.04636812210083,5.670013427734375,0.7038915753364563,-0.07811550796031952,0.12141795456409454,-9.795350074768066,1.8910614576943488e-05,-5.284964060310482e-05,3.1207002095575613,3.0327574553158616,2.0900168143941675,0.49427396005659147,62.18785159130929,False,9.1,539.9886737503915,50,0.02,0.061,0.044
2,1747142975.6186528,26,0,0,-9.14459228515625,54.86360168457031,11.157516479492188,-1.0827289819717407,5.802511215209961,0.7019131183624268,-0.012888357043266296,0.09347173571586609,-9.810790061950684,4.0535082090692036e-05,1.8855132636653363e-06,3.1205948242126693,2.6358835935168448,1.612247395984801,0.5164143358290677,66.10330801618926,False,9.1,606.0919817665808,50,0.02,0.061,0.044
2,1747142976.1231182,28,0,-1,-9.694379806518555,57.815086364746094,11.508323669433594,-1.0996778011322021,5.938088893890381,0.7041195034980774,-0.11328346282243729,0.13217835128307343,-9.791285514831543,1.6363223442836634e-05,-1.3239002457003615e-05,3.120628681470498,3.095865295849425,1.8963155060614898,0.41754738575334155,70.14206043010454,False,9.1,676.2340421966853,50,0.02,0.061,0.044
2,1747142976.6263528,30,0,-2,-10.246708869934082,60.77573776245117,11.852890014648438,-1.130005121231079,6.057305335998535,0.7047802805900574,-0.13892307877540588,0.20423877239227295,-9.787469863891602,-2.789437548949154e-05,3.9564454243991186e-05,3.1210029975210056,2.749790565068082,1.612981303969808,0.5903813999904477,74.1983182908441,False,9.1,750.4323604875294,50,0.02,0.061,0.044
2,1747142977.1313314,32,0,-3,-10.85326099395752,64.02266693115234,12.2216796875,-1.1529778242111206,6.202831268310547,0.7054187655448914,-0.09807734936475754,0.1903570592403412,-9.807554244995117,-2.268062326940484e-05,-0.00013966933795680816,3.1212190050599493,2.944410197213195,2.270835421568911,0.425083786369575,78.53027054138015,False,9.1,828.9626310289095,50,0.02,0.061,0.044
2,1747142977.6369114,34,0,-4,-11.44186019897461,67.17286682128906,12.572433471679688,-1.1779110431671143,6.331002712249756,0.7067139148712158,-0.12897475063800812,0.1606805920600891,-9.867238998413086,2.6733370983577516e-05,6.764210432996174e-05,3.1212581057510462,2.963696591673792,2.117422446968881,0.4270217218906563,82.77561383950614,False,9.1,911.7382448684157,50,0.02,0.061,0.044
2,1747142978.14095,36,0,-5,-12.04039192199707,70.38957977294922,12.9224853515625,-1.1885902881622314,6.465141773223877,0.7071096301078796,-0.1403495818376541,0.16045701503753662,-9.852995872497559,-7.123016206820092e-06,0.00011634148543463294,3.1214154583044653,3.3931920260838395,2.367835115044209,0.5109981599023647,87.08494518462095,False,9.1,998.8231900530366,50,0.02,0.061,0.044
2,1747142978.6462998,38,0,-6,-12.634092330932617,73.60891723632812,13.266441345214844,-1.1989036798477173,6.571046829223633,0.7085973024368286,-0.21541225910186768,0.15576234459877014,-9.843097686767578,-5.281374512844521e-05,-6.302238147723035e-05,3.1219085129879045,3.4472689437321575,1.6623458448459396,0.49447181920390715,91.39627872616377,False,9.1,1090.2194687792003,50,0.02,0.061,0.044
2,1747142979.152099,40,0,-7,-13.243844032287598,76.94344329833984,13.617408752441406,-1.2088559865951538,6.675844192504883,0.7095271348953247,-0.1401432901620865,0.1485377848148346,-9.828446388244629,-8.407575760895388e-05,-7.416541564310956e-05,3.1218798987464016,3.480173729740672,1.5718723208446712,0.4335160403744374,95.81376695237826,False,9.1,1186.0332357315785,50,0.02,0.061,0.044
3,1747143013.725972,0,5,15,-0.1433616578578949,5.272681713104248,15.020393371582031,-0.16897279024124146,0.6955357789993286,-0.15973295271396637,0.035414278507232666,-0.08447033911943436,-9.890220642089844,0.13890095686201145,-0.10420362859557449,1.0825067130054604,2.617757845570643,1.6329786873599836,0.4782240784196259,0.30874547965875443,True,5.58,0.30874547965875443,100,0.04,0.081,0.179
3,1747143016.1441643,2,5,14,2.465564250946045,4.939395427703857,13.846435546875,0.7844732403755188,-0.7026281356811523,0.0248118806630373,0.04138610512018204,-0.004560156725347042,-9.549073219299316,0.0389162272763152,0.20911945309673544,1.083418320425762,3.1224964502573367,2.4498488874788626,0.5886239027086198,0.4939686500231878,True,5.58,0.8027141296819422,100,0.04,0.081,0.179
3,1747143018.7285411,4,5,13,4.176987648010254,4.839751720428467,12.936737060546875,-0.026860911399126053,0.4722238779067993,0.020490426570177078,0.05344332009553909,-0.060106128454208374,-9.618935585021973,0.0748304777815438,0.028471972979540662,1.0859558172908355,2.9200669830008277,1.9460585471126843,0.4752898503028933,0.24699461160536995,True,5.58,1.0497087412873123,100,0.04,0.081,0.179
3,1747143021.2289922,6,5,12,6.160027503967285,5.1044793128967285,11.981643676757812,0.6605178713798523,-0.33590787649154663,-0.048482660204172134,0.06521650403738022,-0.03571711480617523,-9.702675819396973,0.061998641355072936,0.13178958061492202,1.0809022954892358,2.5612459644684695,2.018512818831849,0.4445816768166202,0.19199396722903467,True,5.58,1.241702708516347,100,0.04,0.081,0.179
3,1747143023.248205,8,5,11,8.06496524810791,4.729757785797119,11.058906555175781,0.5374459028244019,0.18007425963878632,-0.17557574808597565,0.0952896773815155,-0.08483649045228958,-9.43574333190918,0.04588346397954379,0.10688062386811976,1.073965403211432,3.2418521657655264,1.5535311538525378,0.49555867236788276,0.28411497679931524,True,5.58,1.5258176853156622,100,0.04,0.081,0.179
3,1747143027.350584,10,5,10,10.646484375,5.031088829040527,10.810752868652344,0.34538060426712036,-0.048712413758039474,0.855934739112854,0.12591299414634705,0.06690394878387451,-9.775222778320312,0.00048628918222315827,0.00041483201003803753,1.0680593382343508,3.3937134923851544,1.5992624480591746,0.5254575621402852,1.0374144670469254,True,5.58,2.5632321523625876,100,0.04,0.081,0.179
3,1747143027.855208,12,5,9,10.764725685119629,4.9965596199035645,11.240478515625,0.3978612422943115,-0.01968524232506752,0.833859384059906,-0.005275677889585495,-0.06302155554294586,-9.871491432189941,0.0003630535778559082,0.0003501083441397963,1.0689957805765617,2.6692346757520107,2.0712084887003126,0.5133607392280038,2.558448445483235,False,5.58,5.121680597845822,100,0.04,0.081,0.179
3,1747143028.359599,14,5,8,10.947422981262207,4.980684280395508,11.680191040039062,0.48234817385673523,0.01346152275800705,0.7928027510643005,0.05805281177163124,-0.019250696524977684,-9.91950798034668,0.00015752533699646144,0.00015632719347140393,1.069485335723919,3.211535651628269,2.100275293078857,0.5690769007310891,4.781464801034694,False,5.58,9.903145398880516,100,0.04,0.081,0.179
3,1747143028.864868,16,5,7,11.196998596191406,4.988001346588135,12.097648620605469,0.5850664973258972,0.0532868355512619,0.7484627366065979,0.04449791833758354,0.0445389486849308,-9.914648056030273,0.00010999098426117588,3.409397615230787e-05,1.0696673308129772,3.3948517809555607,2.352305739064216,0.5830552523582935,7.003926606685129,False,5.58,16.907072005565645,100,0.04,0.081,0.179
3,1747143029.369352,18,5,6,11.524993896484375,5.0169878005981445,12.500236511230469,0.6994132995605469,0.0864260196685791,0.7087302207946777,0.029073957353830338,0.01615540124475956,-9.855645179748535,9.161589525178185e-06,-0.0002280524094268223,1.0696644429977513,2.6091989794322354,2.121821946172858,0.4307609630875102,9.174915112842593,False,5.58,26.081987118408236,100,0.04,0.081,0.179
3,1747143029.87293,20,5,5,11.91854190826416,5.070751667022705,12.876327514648438,0.8237559199333191,0.12427613139152527,0.6862197518348694,0.019809789955615997,-0.03067740984261036,-9.819053649902344,-0.00017858246412652795,-8.077080180075569e-05,1.0694761812054971,2.757856518997757,1.871588911028617,0.5479404479915968,11.285012441502987,False,5.58,37.36699955991122,100,0.04,0.081,0.179
3,1747143030.3765197,22,5,4,12.42752742767334,5.159134864807129,13.268936157226562,0.966929018497467,0.1794852465391159,0.6711302995681763,-0.006045825779438019,-0.003394277300685644,-9.827188491821289,-0.00018787047147871583,-0.00016144417214086388,1.0691250786946318,3.457324878199838,2.3062998610233243,0.471159026570582,13.325566874992045,False,5.58,50.69256643490327,100,0.04,0.081,0.179
3,1747143030.8824978,24,5,3,12.963367462158203,5.266072750091553,13.618766784667969,1.0955941677093506,0.2254309356212616,0.6685139536857605,0.056006401777267456,-0.09656501561403275,-9.815680503845215,-0.0001396164536776399,-0.0001607283949442852,1.0686116400625938,3.1858132266535404,2.0631002968685745,0.5793774329104026,15.31784124838932,False,5.58,66.01040768329258,100,0.04,0.081,0.179
3,1747143031.3870652,26,5,2,13.573118209838867,5.397572040557861,13.969306945800781,1.227978229522705,0.27309027314186096,0.667576253414154,0.0390404649078846,0.013552282005548477,-9.840806007385254,-0.00010190662636731095,-5.519471310974908e-05,1.0684884869324234,3.303366439613147,2.423491522757925,0.51563178814599,17.25832446435246,False,5.58,83.26873214764504,100,0.04,0.081,0.179
3,1747143031.8921595,28,5,1,14.230586051940918,5.548199653625488,14.310104370117188,1.3514878749847412,0.31419721245765686,0.6720378994941711,0.0512012280523777,-0.12031351029872894,-9.843748092651367,-0.0001288585405484748,-0.00010745891729473359,1.0679813100708855,3.1444724963931208,2.055709489415814,0.4556674396427808,19.15870981242348,False,5.58,102.42744196006852,100,0.04,0.081,0.179
3,1747143032.3976066,30,5,0,14.958344459533691,5.722133636474609,14.656669616699219,1.4721847772598267,0.3515832722187042,0.6775428652763367,0.0921769067645073,0.04371098428964615,-9.905852317810059,-7.575622038462845e-05,-3.784750579593071e-05,1.0674471033808597,3.0441727965268415,1.783164971661744,0.5022463744221939,21.014062973162588,False,5.58,123.4415049332311,100,0.04,0.081,0.179
3,1747143032.9022691,32,5,-1,15.741662979125977,5.914962291717529,15.002250671386719,1.594043254852295,0.3908718228340149,0.6795448064804077,-0.026494935154914856,-0.035279057919979095,-9.751863479614258,-4.8556336077724976e-05,-4.1607182267846544e-05,1.0670900514310135,3.493866805953363,2.243304070843541,0.5058306377164176,22.83074035657811,False,5.58,146.2722452898092,100,0.04,0.081,0.179
3,1747143033.4060917,34,5,-2,16.624792098999023,6.136913776397705,15.366142272949219,1.7086354494094849,0.4288042187690735,0.6851162314414978,0.043361496180295944,0.04010992497205734,-9.833386421203613,-7.944756773893433e-05,-2.863103840387192e-05,1.066762070753859,3.2262606145237753,2.175164739511141,0.46923685597418313,24.59213939416991,False,5.58,170.86438468397913,100,0.04,0.081,0.179
3,1747143033.9120324,36,5,-3,17.49940299987793,6.362389087677002,15.708404541015625,1.81122887134552,0.46290773153305054,0.69305020570755,-0.017679601907730103,-0.04197711497545242,-9.824681282043457,-6.583725882182422e-05,-8.248699161345261e-05,1.0663314007543618,2.511682510427753,2.1359245996617666,0.45018712722254767,26.346396221446327,False,5.58,197.21078090542545,100,0.04,0.081,0.179
3,1747143034.415424,38,5,-4,18.442062377929688,6.607490062713623,16.059051513671875,1.9164129495620728,0.4934699833393097,0.6931334137916565,0.0672229677438736,-0.01450438890606165,-9.7498779296875,-0.00012199369302954045,-5.568392706550163e-05,1.0658451020458353,3.2738121224164027,1.5864456482912974,0.4814601136542947,28.061762167737406,False,5.58,225.27254307316286,100,0.04,0.081,0.179
3,1747143034.919139,40,5,-5,19.41896629333496,6.862507343292236,16.404220581054688,2.020617961883545,0.5223256349563599,0.6948149800300598,0.10243064910173416,0.03755728527903557,-9.796628952026367,-9.307041779734376e-05,0.0001368670623951333,1.0656178722824559,3.2393007267919733,1.5228044799155946,0.5451509224305361,29.752118256035907,False,5.58,255.02466132919878,100,0.04,0.081,0.179
4,1747143036.7285862,0,-5,-11,23.37932014465332,7.892124176025391,17.66327667236328,2.3798773288726807,0.6143413782119751,0.6972041726112366,0.04456240311264992,-0.08918701857328415,-9.82221508026123,-3.490917406831982e-05,-7.542205520269337e-05,1.064193479635308,3.3395158535701817,1.6862789885257425,0.576084320228331,39.17119995344406,False,6.79,39.17119995344406,50,0.06,0.199,0.08
4,1747143037.2345734,2,-5,-10,24.60340690612793,8.210309028625488,18.017837524414062,2.4823806285858154,0.6443844437599182,0.6959446668624878,-0.02239111438393593,-0.00016596715431660414,-9.811168670654297,-4.377335733128913e-05,-5.161332570906428e-05,1.063549953910803,2.9636773050571925,2.206555008166881,0.5292208427979734,38.346127417775065,False,6.79,77.51732737121912,50,0.06,0.199,0.08
4,1747143037.7390544,4,-5,-9,25.878597259521484,8.541234016418457,18.371627807617188,2.585585594177246,0.6691390872001648,0.6938910484313965,0.0326496884226799,0.06370901316404343,-9.819572448730469,0.0001141046227624257,0.00010691966638375276,1.0632386438621417,3.461613960696257,1.7921508212575556,0.47311918258358443,37.566528260813136,False,6.79,115.08385563203225,50,0.06,0.199,0.08
4,1747143038.242492,6,-5,-8,27.180334091186523,8.87816333770752,18.719955444335938,2.679375171661377,0.6913442611694336,0.6956673860549927,-0.0010820385068655014,0.032040081918239594,-9.826273918151855,0.00015361436972097825,0.00021193001401601774,1.0628298855674576,3.2706422194597757,1.906416184033696,0.5868399100094506,36.81257921946878,False,6.79,151.89643485150103,50,0.06,0.199,0.08
4,1747143038.74638,8,-5,-7,28.556190490722656,9.233733177185059,19.07317352294922,2.7792117595672607,0.7145850658416748,0.6930152177810669,0.030916254967451096,0.05255470052361488,-9.869967460632324,6.745341209452262e-05,8.791355452395755e-05,1.062330569884552,3.079018385643877,1.5954584115318866,0.5303930893723947,36.12432013488967,False,6.79,188.0207549863907,50,0.06,0.199,0.08
4,1747143039.253257,10,-5,-6,30.06073760986328,9.62285327911377,19.442703247070312,2.8820900917053223,0.7430536150932312,0.6914341449737549,0.03566650301218033,0.048771932721138,-9.803360939025879,1.0402589685091457e-05,8.082276920648034e-05,1.0615220853108536,3.0754088512293607,1.8758019172608396,0.4640266420021574,35.547041789616664,False,6.79,223.56779677600736,50,0.06,0.199,0.08
4,1747143039.758844,12,-5,-5,31.51173973083496,9.996468544006348,19.78673553466797,2.977330446243286,0.7637003064155579,0.6918036341667175,-0.022111978381872177,0.0023388804402202368,-9.803289413452148,-2.144465237606702e-05,0.00013331514991051966,1.0608326395072665,2.643789312970424,1.7404467214928316,0.4417431352466873,34.92827385630139,False,6.79,258.4960706323087,50,0.06,0.199,0.08
4,1747143040.262532,14,-5,-4,33.03881072998047,10.387746810913086,20.1378173828125,3.075239419937134,0.7866309285163879,0.6942687034606934,0.007144327275454998,0.02930060587823391,-9.858179092407227,-2.4698766284897745e-05,-1.1936429784719538e-05,1.0601249938754809,2.9019830258186348,1.9584113380710853,0.4177446942314821,34.37867498806187,False,6.79,292.87474562037056,50,0.06,0.199,0.08
4,1747143040.7666926,16,-5,-3,34.61513900756836,10.791330337524414,20.489341735839844,3.1718509197235107,0.8074510097503662,0.6929492950439453,-7.994566112756729e-05,0.07684013992547989,-9.861547470092773,-1.7663774175341797e-05,2.2849900543374064e-05,1.059599956228474,2.6545068457606313,1.7540313213068273,0.4218165778653381,33.876816398283054,False,6.79,326.7515620186536,50,0.06,0.199,0.08
4,1747143041.270107,18,-5,-2,36.21055221557617,11.198877334594727,20.836212158203125,3.268293619155884,0.831471860408783,0.6970512866973877,0.032175980508327484,-0.03639563173055649,-9.781368255615234,-1.8022451210946422e-05,-6.225035004051661e-05,1.0592585181977747,3.3169979107036847,2.022728889982631,0.5787927989365791,33.39940754911586,False,6.79,360.15096956776944,50,0.06,0.199,0.08
4,1747143041.775291,20,-5,-1,37.88294219970703,11.625153541564941,21.190719604492188,3.3662543296813965,0.8525116443634033,0.6959988474845886,-0.006099489517509937,0.04400782659649849,-9.733288764953613,-1.8623513617963147e-05,3.840337302339664e-05,1.058733396539528,3.2848514253084593,1.582983717537624,0.4339414918963622,32.99429327268378,False,6.79,393.1452628404532,50,0.06,0.199,0.08
4,1747143042.2787786,22,-5,0,39.5731201171875,12.055320739746094,21.539230346679688,3.4602503776550293,0.8760508298873901,0.6963064670562744,-0.018844202160835266,-0.016092367470264435,-9.795825958251953,-1.51941625520342e-05,-3.097341863958841e-05,1.0585927253704321,2.8611884305013056,2.315568767766605,0.5722218036295856,32.61344753496693,False,6.79,425.75871037542015,50,0.06,0.199,0.08
4,1747143042.7819774,24,-5,1,41.43702697753906,12.529642105102539,21.91199493408203,3.558326244354248,0.9014683365821838,0.6939932107925415,-0.04433631896972656,0.01831424981355667,-9.877140998840332,-5.895126439643697e-06,7.954032139983433e-06,1.0576839980842971,2.8568835237285044,1.8001377645595293,0.46204102551391346,32.38286266332057,False,6.79,458.1415730387407,50,0.06,0.199,0.08
4,1747143043.2851057,26,-5,2,43.25465774536133,12.991257667541504,22.26593780517578,3.6541430950164795,0.9245278835296631,0.6951653361320496,0.03641572967171669,0.02726205810904503,-9.832871437072754,-3.838773675499028e-06,3.228895914139838e-05,1.0572365564773405,3.3529905108493643,1.8284840184568014,0.5763343655897887,32.12657469280971,False,6.79,490.2681477315504,50,0.06,0.199,0.08
4,1747143043.78863,28,-5,3,45.11936950683594,13.463544845581055,22.617355346679688,3.746645450592041,0.9486970901489258,0.6915051341056824,-0.05724106356501579,0.021916721016168594,-9.7860746383667,4.4916757410244754e-05,-3.671452201175207e-05,1.0569352730298855,3.068695073880715,2.4800660374456465,0.4925950601644635,31.918896149056735,False,6.79,522.1870438806071,50,0.06,0.199,0.08
4,1747143044.2921777,30,-5,4,46.99772262573242,13.937886238098145,22.962310791015625,3.8386027812957764,0.9684090614318848,0.6937988996505737,0.03260575979948044,0.07260504364967346,-9.790201187133789,2.051828499198189e-06,-4.231746898699459e-05,1.0564143228565182,3.1524875452858363,2.1433817233447323,0.5768682928697155,31.73539569886518,False,6.79,553.9224395794723,50,0.06,0.199,0.08
4,1747143044.7977822,32,-5,5,48.95802307128906,14.433586120605469,23.314483642578125,3.932556390762329,0.9963324666023254,0.6936262845993042,-0.027646489441394806,0.03983417898416519,-9.845783233642578,-3.7696489886044395e-05,4.889687976265629e-06,1.055997874973922,3.200920734472233,2.2991299140439554,0.4700419846890232,31.633196599262988,False,6.79,585.5556361787353,50,0.06,0.199,0.08
4,1747143045.3021379,34,-5,6,50.92973709106445,14.931107521057129,23.66204833984375,4.029127597808838,1.0161091089248657,0.6927571892738342,0.016411419957876205,0.004246449563652277,-9.716190338134766,-4.4563103016918137e-05,-1.4264415729676781e-05,1.0553872698472107,3.486699329911102,1.9100311399958025,0.5127714981346568,31.55650482147034,False,6.79,617.1121410002056,50,0.06,0.199,0.08
4,1747143045.807655,36,-5,7,52.98314666748047,15.448769569396973,24.015884399414062,4.115200042724609,1.0418792963027954,0.6939512491226196,0.016742531210184097,0.042020559310913086,-9.802531242370605,-7.62984308855739e-05,-0.00012638982035527693,1.0549575014707993,2.6124619834925507,2.1210499371019367,0.46937307223871466,31.56136514040024,False,6.79,648.6735061406058,50,0.06,0.199,0.08
4,1747143046.3122241,38,-5,8,55.04560470581055,15.968290328979492,24.36456298828125,4.209313869476318,1.0611830949783325,0.6947275996208191,-0.0015732760075479746,0.006639822386205196,-9.834033012390137,-3.852237627482378e-05,-6.060101357526116e-05,1.0541752995784015,3.4524914057624843,1.7215437490590584,0.5328766493654429,31.59146658362904,False,6.79,680.2649727242349,50,0.06,0.199,0.08
4,1747143046.8175817,40,-5,9,57.346527099609375,16.54665756225586,24.743408203125,4.3065385818481445,1.086910367012024,0.6932574510574341,-0.05246468633413315,-0.02813045307993889,-9.895922660827637,-2.376917730713601e-05,-1.6115990742252633e-05,1.0534960820480692,2.521599527865164,1.631255143703882,0.4459746931348046,31.827902167325192,False,6.79,712.0928748915601,50,0.06,0.199,0.08
5,1747143055.6392343,0,-4,15,101.81617736816406,27.118019104003906,-1.2401123046875,5.674170017242432,1.1353873014450073,-1.9956129789352417,-0.016447581350803375,-0.03727860003709793,-10.856879234313965,0.019585825238731536,0.00867495341907783,1.0384101321387023,2.9606298439666907,1.5305753835003537,0.5535862110562334,107.69682601865043,False,8.22,107.69682601865043,100,0.02,0.192,0.187
5,1747143056.1447353,2,-4,14,104.67839813232422,27.668737411499023,-1.3546981811523438,5.709001541137695,1.071096658706665,-1.6681429147720337,-0.06177487596869469,-0.053333885967731476,-9.301067352294922,0.010060323873630574,0.00466447548989203,1.0249508109405658,3.297211019645145,2.267448029170832,0.4881827613874341,108.54275253784954,False,8.22,216.23957855649996,100,0.02,0.192,0.187
5,1747143056.6493742,4,-4,13,0.5232512950897217,-0.08907845616340637,-1.8279190063476562,0.41027435660362244,-0.132384791970253,-1.0875784158706665,-0.00622829794883728,-0.06475219130516052,-8.576092720031738,0.005163634664479065,0.0024425471088482284,1.0141806482403992,3.2284556515362723,2.208576353715374,0.4947996558564018,15.724193808839503,False,8.22,231.96377236533948,100,0.02,0.192,0.187
5,1747143057.1545544,6,-4,12,0.57743901014328,-0.18419073522090912,-2.3741836547851562,0.5008721351623535,-0.13351204991340637,-0.5044106841087341,-0.05210630223155022,-0.05543822795152664,-8.366832733154297,0.0024621342201918317,0.0013961075882107502,1.0059043278729354,2.7238282771442783,2.3080555301196495,0.45313513476661443,15.829773333038682,False,8.22,247.79354569837815,100,0.02,0.192,0.187
5,1747143057.6594694,8,-4,11,0.8214488625526428,-0.2329808622598648,-2.7195053100585938,0.5763313174247742,-0.12292537093162537,0.07532606273889542,-0.034960731863975525,-0.12794364988803864,-8.577292442321777,0.0013604869599954058,0.0014159910514851162,0.9999162254967916,2.7374287710504475,2.4869553600251093,0.5500188131613144,15.935710074225533,False,8.22,263.72925577260366,100,0.02,0.192,0.187
5,1747143058.1630733,10,-4,10,1.0876814126968384,-0.2609042227268219,-2.7773895263671875,0.6130478978157043,-0.1014709398150444,0.49474620819091797,-0.06472481787204742,-0.021016081795096397,-9.06055736541748,0.0007596258983259728,0.0014672473500659563,0.9956612016814241,3.115427776096013,2.160134648004962,0.45979264479427995,16.0209844560729,False,8.22,279.75024022867655,100,0.02,0.192,0.187
5,1747143058.6673992,12,-4,9,1.356926441192627,-0.2682652771472931,-2.6028823852539062,0.635066032409668,-0.06725257635116577,0.7446745038032532,-0.006069760769605637,-0.011400435119867325,-9.527161598205566,0.0003729757084121916,0.0013272934276449076,0.992773636909631,3.041497416338944,1.907438187978246,0.5290296053489523,16.181092004743206,False,8.22,295.93133223341977,100,0.02,0.192,0.187
5,1747143059.1717222,14,-4,8,1.629397988319397,-0.2513931691646576,-2.281097412109375,0.653784990310669,-0.02291405200958252,0.8435763716697693,-0.03148883208632469,-0.044570956379175186,-9.710551261901855,0.00014645459395420206,0.0011891406173431414,0.9907100751447138,2.6775699103745474,1.6382655266827402,0.5679844581913114,16.51619845184913,False,8.22,312.4475306852689,100,0.02,0.192,0.187
5,1747143059.6756427,16,-4,7,1.9028576612472534,-0.20689751207828522,-1.8958511352539062,0.6740518808364868,0.018996963277459145,0.8510183691978455,-0.11157673597335815,-0.09346233308315277,-9.81811809539795,-1.6893463517359e-05,0.0013536444491513708,0.989313597449316,3.1499494161645325,2.2813125541753783,0.494587222353439,17.095415058533426,False,8.22,329.5429457438023,100,0.02,0.192,0.187
5,1747143060.181862,18,-4,6,2.1857874393463135,-0.11628086119890213,-1.4850540161132812,0.685594916343689,0.08552700281143188,0.8140026926994324,-0.14503516256809235,-0.0359405055642128,-9.95508861541748,-0.0003388788787376843,0.0012139146273766363,0.9884823238626411,3.259865773174541,2.0114021632218053,0.42514911272039513,17.922015145813273,False,8.22,347.46496088961555,100,0.02,0.192,0.187
5,1747143060.6863048,20,-4,5,2.496533155441284,0.047498222440481186,-1.059814453125,0.712342381477356,0.17804259061813354,0.7657271027565002,-0.05484403669834137,0.037637919187545776,-9.916847229003906,-0.0005902264733454014,0.0012646420857223542,0.9878057620320243,3.338628073921349,2.468021690128125,0.4777523831129716,18.959824488784903,False,8.22,366.42478537840043,100,0.02,0.192,0.187
5,1747143061.1909132,22,-4,4,2.808140754699707,0.2821371257305145,-0.6731338500976562,0.7372005581855774,0.2990667223930359,0.7308474779129028,0.007816087454557419,-0.051923055201768875,-9.851038932800293,-0.0007883846124407097,0.0013192231423807656,0.9874626827505442,3.0081504178179808,1.7131517095755637,0.5564504400011776,20.211440810489155,False,8.22,386.63622618888957,100,0.02,0.192,0.187
5,1747143061.6946204,24,-4,3,3.1326372623443604,0.5978279113769531,-0.3090972900390625,0.7700620293617249,0.44079408049583435,0.7037675380706787,0.05642580986022949,-0.03599098324775696,-9.889147758483887,-0.0009444391326314215,0.0014049547168701237,0.9872528575515843,2.943385121407288,2.146583997506355,0.4202496679614513,21.62260331233221,False,8.22,408.2588295012218,100,0.02,0.192,0.187
5,1747143062.198123,26,-4,2,3.4887053966522217,1.0169122219085693,0.0490264892578125,0.8075312376022339,0.609771728515625,0.6856150031089783,-0.03729163110256195,-0.03512753173708916,-9.85846996307373,-0.0012122344387606081,0.0013039376745454575,0.9871967108248844,2.918634759646845,1.6393677473313923,0.43568669019314493,23.14593032480371,False,8.22,431.4047598260255,100,0.02,0.192,0.187
5,1747143062.701423,28,-4,1,3.8716204166412354,1.530392050743103,0.39279937744140625,0.8559038639068604,0.7834026217460632,0.6796573400497437,-0.04253107309341431,-0.03990545496344566,-9.846269607543945,-0.001348920378586881,0.0012107630786247522,0.9872385627277135,3.4722231713278116,1.9753070249728117,0.4298308606345266,24.761515102061143,False,8.22,456.16627492808664,100,0.02,0.192,0.187
5,1747143063.2051585,30,-4,0,4.309223175048828,2.167850971221924,0.7382888793945312,0.9291537404060364,0.9855223894119263,0.6787664890289307,-0.016981549561023712,-0.03164604306221008,-9.794784545898438,-0.0016978215267212185,0.0012870817896579547,0.9872824772416535,3.0734678487927316,1.8239251644874939,0.502370410194157,26.4311079968678,False,8.22,482.59738292495445,100,0.02,0.192,0.187
5,1747143063.7086287,32,-4,-1,4.800377368927002,2.9249277114868164,1.0773468017578125,1.0220988988876343,1.2172892093658447,0.6789413094520569,-0.1099010482430458,0.0632491260766983,-9.743136405944824,-0.001933681698205793,0.001111222326362266,0.987391988677151,2.824894525175253,1.648868650790654,0.5637357083233356,28.14408401097591,False,8.22,510.74146693593036,100,0.02,0.192,0.187
5,1747143064.2140388,34,-4,-2,5.373936176300049,3.839265823364258,1.4244384765625,1.137750267982483,1.4713430404663086,0.6841930747032166,-0.02340119704604149,-0.01855962909758091,-9.780471801757812,-0.0021693121007514493,0.0010444415736903263,0.9877123659136826,3.253974481521462,1.7291594045374339,0.5691207947075309,29.87695428867661,False,8.22,540.618421224607,100,0.02,0.192,0.187
5,1747143064.7174907,36,-4,-3,6.077759742736816,4.971154689788818,1.7952499389648438,1.291562795639038,1.7699295282363892,0.6868784427642822,0.02459907904267311,0.01797395572066307,-9.770825386047363,-0.002535212806652783,0.0010254274886365084,0.9881000192982923,2.6986938742997326,1.7926863405582343,0.4599107662571935,31.604058290963895,False,8.22,572.2224795155709,100,0.02,0.192,0.187
5,1747143065.222402,38,-4,-4,6.861980438232422,6.220274925231934,2.1516876220703125,1.4723443984985352,2.0796425342559814,0.6869134902954102,-0.013598378747701645,-0.026066403836011887,-9.884145736694336,-0.0028328136392520324,0.0007996413634763704,0.9886041447795771,2.9219377111741283,1.9078916727224546,0.5620467806291719,33.34476784108532,False,8.22,605.5672473566561,100,0.02,0.192,0.187
5,1747143065.72715,40,-4,-5,7.7640700340271,7.620666027069092,2.5042037963867188,1.6872532367706299,2.405963659286499,0.6851462721824646,-0.031236760318279266,0.030345387756824493,-9.84609603881836,-0.0033061867639222,0.0006088808830546508,0.9893006724803103,2.634922858408791,1.7932380875352387,0.5604442605109311,35.07859937770452,False,8.22,640.6458467343607,100,0.02,0.192,0.187
6,1747143067.8781512,0,6,-5,13.82394790649414,15.77623462677002,4.064628601074219,3.1681792736053467,3.9899981021881104,0.660974383354187,-0.04597178474068642,0.013362787663936615,-9.903916358947754,-0.004848550374175001,-0.0011942633223087972,0.9889200221724445,3.0891538294976457,2.2053756566778926,0.4148184803682829,19.20530632076806,False,9.4,19.20530632076806,50,0.06,0.012,0.082
6,1747143068.3822577,2,1,-5,15.968659400939941,18.209718704223633,4.445671081542969,3.6774284839630127,4.388567924499512,0.6553026437759399,0.02413329854607582,0.11884380877017975,-9.936173439025879,-0.00438767967113806,-0.0005757150921966982,0.9874923472710306,2.537535500281071,1.577811134078343,0.5000325097044228,24.093952882801727,False,9.4,43.29925920356979,50,0.06,0.012,0.082
6,1747143068.8857186,4,6,-5,18.61894416809082,20.9658145904541,4.851959228515625,4.321353912353516,4.788751602172852,0.6393131017684937,0.07561654597520828,0.07835635542869568,-9.9234037399292,-0.005730496989897106,-0.003038158341897606,0.9839511248544269,3.3369075077773247,2.085940696929866,0.47716233933089214,23.124667253518258,False,9.4,66.42392645708804,50,0.06,0.012,0.082
6,1747143069.3907347,6,1,-5,21.56821632385254,23.73869514465332,5.245819091796875,5.0393877029418945,5.150723457336426,0.630199670791626,0.11849477887153625,0.08137067407369614,-9.899104118347168,-0.0057781707501191526,-0.0036370349279154835,0.97935170822677,2.871092292169656,2.4046334220481262,0.44340339340704427,29.400585457598943,False,9.4,95.82451191468698,50,0.06,0.012,0.082
6,1747143069.8940804,8,6,-5,24.91660499572754,26.597434997558594,5.6454925537109375,5.832467555999756,5.493691444396973,0.6341612935066223,0.1496475785970688,0.12289292365312576,-9.933653831481934,-0.005790688380915926,-0.004307820696738024,0.9743929438433275,2.705508955802494,2.2245570610941447,0.5741357625526173,28.701086473707587,False,9.4,124.52559838839457,50,0.06,0.012,0.082
6,1747143070.3970556,10,1,-5,28.827373504638672,29.612436294555664,6.063560485839844,6.72486686706543,5.793290615081787,0.6144979000091553,0.18941698968410492,0.07890243828296661,-9.94431209564209,-0.005664778192036667,-0.005241646714399151,0.9655125625590398,3.482975913977068,2.237490017421914,0.5012084340972235,35.993664364954746,False,9.4,160.51926275334932,50,0.06,0.012,0.082
6,1747143070.9006698,12,6,-5,33.206214904785156,32.635746002197266,6.491546630859375,7.704123020172119,6.053320407867432,0.6249382495880127,0.24979576468467712,0.1432311236858368,-9.9386625289917,-0.005587799946017381,-0.006129233722959444,0.9517174748325083,3.102955718646559,1.8450498489929505,0.5924691693036738,35.93357983350275,False,9.4,196.45284258685206,50,0.06,0.012,0.082
6,1747143071.4043882,14,1,-5,38.268280029296875,35.73032760620117,6.952568054199219,8.822527885437012,6.253479957580566,0.6389488577842712,0.4126582741737366,0.24824541807174683,-10.002089500427246,-0.005309370864387692,-0.00711193814028591,0.9281114791651269,2.8530196558469223,2.1705718629701543,0.5640997307083722,44.022823106937295,False,9.4,240.47566569378935,50,0.06,0.012,0.082
6,1747143071.909671,16,6,-5,43.864524841308594,38.72346496582031,7.432014465332031,10.01991081237793,6.360675811767578,0.6514219045639038,0.5557777881622314,0.06031641364097595,-9.93799114227295,-0.004800049433513928,-0.007737878998942588,0.8882285626113264,2.9506755433786287,2.1060481513206106,0.5599995363576751,44.741612483988526,False,9.4,285.21727817777787,50,0.06,0.012,0.082
6,1747143072.4155326,18,1,-5,49.88276290893555,41.765567779541016,7.906005859375,10.956082344055176,6.489988803863525,0.6671293377876282,0.6319571733474731,0.09179899841547012,-9.934629440307617,-0.0014821549716976712,-0.0020449539136086943,0.8613836028591242,2.837595726591732,2.3643473269890816,0.5646522922394736,53.33767031224715,False,9.4,338.554948490025,50,0.06,0.012,0.082
6,1747143072.9213336,20,6,-5,56.369754791259766,45.05945587158203,8.380775451660156,11.656736373901367,6.709481716156006,0.6758562326431274,0.9330319166183472,0.057204972952604294,-9.781967163085938,-0.00164196153571022,-0.002957210135443251,0.849303563419601,3.1357575118386096,2.393033698929307,0.41264606712213225,55.0222255842871,False,9.4,393.5771740743121,50,0.06,0.012,0.082
6,1747143073.4251018,22,1,-5,66.16375732421875,46.65445327758789,9.137008666992188,14.46781063079834,5.085141658782959,0.9574269652366638,1.0254244804382324,0.09060095995664597,-10.235363006591797,0.00031207511397469235,-0.0031177749521880136,2.9863665683492915,3.2981588195565585,1.994493218146778,0.5015697046158152,65.0739700580697,False,9.4,458.6511441323818,50,0.06,0.012,0.082
6,1747143073.928993,24,6,-5,73.88343048095703,48.7900505065918,9.851852416992188,14.723784446716309,4.847908973693848,0.9904332160949707,1.3378182649612427,0.025563810020685196,-10.00055980682373,0.0052749955539808146,-0.0007205872293345027,3.0140240942989522,2.540314298549019,1.6383783801101313,0.5957179099030548,67.37894759582748,False,9.4,526.0300917282093,50,0.06,0.012,0.082
6,1747143074.4329348,26,1,-5,81.69178009033203,50.9794807434082,10.449882507324219,14.440494537353516,4.798127174377441,0.8825828433036804,1.42439866065979,-0.00023187324404716492,-9.827658653259277,0.0009859322594505397,0.00015515187745356705,3.0244534883032106,3.3240734926238376,1.9123073377794895,0.5133111081779006,76.40825697855395,False,9.4,602.4383487067632,50,0.06,0.012,0.082
6,1747143074.937452,28,6,-5,89.42137908935547,53.04692840576172,10.989990234375,14.129488945007324,4.719391345977783,0.9181582927703857,1.5421884059906006,0.07748594880104065,-9.842162132263184,0.005011889883179946,0.00021989001470158553,3.0437510400676806,3.330037264643736,2.129205602430641,0.5141572433504691,79.00429779037714,False,9.4,681.4426464971403,50,0.06,0.012,0.082
6,1747143075.441782,30,1,-5,96.9333724975586,55.1589241027832,11.542701721191406,13.651089668273926,4.639796733856201,0.9106429815292358,1.7153223752975464,-0.03611095994710922,-9.768768310546875,0.0006779920854231787,0.0002695770861033385,3.0589221280754337,3.4439237987978206,1.5395055803147473,0.5057107835891279,87.67511844362842,False,9.4,769.1177649407688,50,0.06,0.012,0.082
6,1747143075.945235,32,6,-5,103.51049041748047,57.49399948120117,12.136474609375,12.730377197265625,4.725376605987549,1.0146065950393677,1.9390132427215576,0.008786149322986603,-9.74220085144043,-9.78607564853692e-05,0.000201999066118959,3.055823147357061,3.432785905813577,2.466842067339287,0.5238523535654108,89.77216152213484,False,9.4,858.8899264629036,50,0.06,0.012,0.082
6,1747143076.4504285,34,1,-5,109.35950469970703,59.891510009765625,12.779472351074219,11.6412935256958,4.851618766784668,1.1555424928665161,2.254304885864258,-0.0026755905710160732,-9.677997589111328,-5.42645015900553e-06,5.73928065741578e-05,3.054827995012093,2.7906368891375912,2.08691071862384,0.48638900087049697,97.27987734828875,False,9.4,956.1698038111924,50,0.06,0.012,0.082
6,1747143076.9553628,36,6,-5,115.02503204345703,62.540077209472656,13.500556945800781,10.432750701904297,4.991711139678955,1.2359917163848877,2.1633405685424805,0.014092645607888699,-9.654863357543945,-5.389455964066768e-05,1.4687304640054064e-06,3.053989707377012,3.1826887453758763,1.720697773239572,0.5889003520729629,98.91413765295312,False,9.4,1055.0839414641455,50,0.06,0.012,0.082
6,1747143077.4589133,38,1,-5,146.47088623046875,56.09660720825195,14.195518493652344,21.526626586914062,0.4121004045009613,1.3319311141967773,2.4002556800842285,-0.045021902769804,-9.616277694702148,0.0008636722503694847,-0.0008554262050507615,-2.7721562426341806,3.0372827781144442,1.841621402248752,0.5313803584733328,123.16670498037952,False,9.4,1178.250646444525,50,0.06,0.012,0.082
6,1747143077.9644122,40,6,-5,158.00230407714844,55.905582427978516,14.863456726074219,21.41383171081543,-0.2740686535835266,1.3825170993804932,2.608311891555786,0.02736731618642807,-9.660201072692871,0.006557934591342981,0.0017508593239299454,-2.6451857974591753,3.0174118838072825,1.7813637150924309,0.5310179748766173,129.65210309941057,False,9.4,1307.9027495439357,50,0.06,0.012,0.082
7,1747143107.14433,0,6,-5,1.4097915887832642,5.260809421539307,-5.05047607421875,1.1788935661315918,-0.541000485420227,0.3892075717449188,0.0037070736289024353,0.13810189068317413,-11.860864639282227,0.5272895173330535,0.26469031135517307,0.038309973191409316,3.140570963949094,2.0966334370547233,0.5627042541760927,1.5926276618085067,False,9.92,1.5926276618085067,100,0.01,0.176,0.108
7,1747143107.7536302,2,5,-5,1.6771306991577148,5.11916446685791,-4.76446533203125,-0.3046088218688965,0.1275148242712021,0.02714626118540764,0.1577538251876831,-0.004459993913769722,-10.84618091583252,0.08839776451234235,0.04638085626301014,-0.015490573475703163,3.269947509935519,2.242392695372645,0.43251569790630806,0.41703876966424275,True,9.92,2.0096664314727493,100,0.01,0.176,0.108
7,1747143111.387709,4,4,-5,4.5746331214904785,3.8701608180999756,-5.0908203125,0.7452626824378967,-0.441476434469223,0.08847088366746902,-0.008576858788728714,0.0846649557352066,-10.109768867492676,0.2500252869586853,0.11019496951330755,0.006611157476333839,3.443109958494131,1.5316246965221436,0.41009561104995385,0.5960786580921652,True,9.92,2.6057450895649144,100,0.01,0.176,0.108
7,1747143112.877652,6,3,-5,5.718403339385986,3.0989646911621094,-5.0213775634765625,0.15584711730480194,-0.19922849535942078,0.03836529701948166,0.04592253640294075,-0.019910207018256187,-9.931364059448242,0.03409588476910002,0.0418512286163596,-0.009173706155556538,3.1062325900306056,1.9133030766339933,0.5645862199771534,0.299245199770974,True,9.92,2.9049902893358883,100,0.01,0.176,0.108
7,1747143115.544928,8,2,-5,8.063611030578613,1.9893406629562378,-4.9937896728515625,0.5737759470939636,-0.21945297718048096,0.008451368659734726,0.020111195743083954,0.06183234974741936,-9.909844398498535,0.12078678197671029,0.052145464800648036,-0.010180228642518191,3.4560866218927986,1.67157314788614,0.5360077843946516,0.06479624094634205,True,9.92,2.96978653028223,100,0.01,0.176,0.108
7,1747143117.7712123,10,1,-5,9.878249168395996,1.0699838399887085,-5.0045166015625,0.41796255111694336,-0.27564331889152527,0.005931804422289133,0.04393300041556358,0.15242911875247955,-9.800704002380371,0.06302520228434064,0.04246023845203548,-0.015679252661880406,2.7397688424564213,2.2714198547826503,0.5181808883927416,0.1405041015255642,True,9.92,3.1102906318077945,100,0.01,0.176,0.108
7,1747143120.144591,12,0,-5,11.992405891418457,-0.017691362649202347,-5.0053863525390625,0.5633447170257568,-0.2369202971458435,0.0171243604272604,0.10932693630456924,0.13954703509807587,-9.897732734680176,0.09376710887856829,0.048911897202565675,-0.017839529602507037,2.81920817959605,2.2129502672918133,0.5784023655997644,0.019991688053011467,True,9.92,3.130282319860806,100,0.01,0.176,0.108
7,1747143122.3758168,14,-1,-5,13.973664283752441,-0.9654524922370911,-4.994697570800781,0.5093601942062378,-0.28731200098991394,0.007771125994622707,0.01737813651561737,0.02782285213470459,-9.835396766662598,0.08130282413922767,0.045192289429778584,-0.022718562373046276,3.319135734505073,1.6857802302713982,0.5990070453516644,0.043763180852320394,True,9.92,3.1740455007131265,100,0.01,0.176,0.108
7,1747143124.6242335,16,-2,-5,15.971396446228027,-2.0036122798919678,-4.994941711425781,0.5663344860076904,-0.26659315824508667,0.0032522822730243206,-0.020383138209581375,0.0610782653093338,-9.867581367492676,0.08676406522394114,0.04813440208828226,-0.02631756990531763,3.167504164018527,1.986619861964695,0.5705002895769766,0.02927111439122395,True,9.92,3.2033166151043506,100,0.01,0.176,0.108
7,1747143126.8104014,18,-3,-5,17.98937225341797,-2.9696478843688965,-4.997810363769531,0.551583468914032,-0.2856716215610504,0.006461369805037975,0.07203374058008194,0.012799501419067383,-9.8303804397583,0.08752858289692884,0.04405003494486231,-0.030594577313784205,3.2984383207495385,2.115237702253979,0.5258266829999112,0.032233436483216256,True,9.92,3.235550051587567,100,0.01,0.176,0.108
7,1747143128.972331,20,-4,-5,19.974103927612305,-4.000582218170166,-4.9979400634765625,0.5664765238761902,-0.28496837615966797,0.00577912013977766,0.0147358737885952,0.0962352529168129,-9.782551765441895,0.08562139131268948,0.04818391180868686,-0.034176698121527446,2.865639375706675,2.037116169753758,0.5867558454301178,0.025984396887113213,True,9.92,3.26153444847468,100,0.01,0.176,0.108
7,1747143131.1570368,22,-5,-5,21.981660842895508,-4.996550559997559,-4.9988555908203125,0.5844347476959229,-0.2837209105491638,0.005502165295183659,0.020286204293370247,0.040899451822042465,-9.857427597045898,0.08877898516111428,0.04699128836289252,-0.03893612254495028,2.968484401840192,1.7223627271862787,0.4575934361754633,0.018695801453915858,True,9.92,3.280230249928596,100,0.01,0.176,0.108
7,1747143133.3434517,24,-6,-5,24.00792694091797,-6.002798557281494,-5.000526428222656,0.580386221408844,-0.2820410430431366,0.013451557606458664,-0.025798272341489792,0.021565251052379608,-9.854327201843262,0.09091820937920211,0.045814666968448485,-0.04992931234473579,2.9824394465629975,1.9099306562685197,0.547856813243275,0.008422911720324519,True,9.92,3.2886531616489205,100,0.01,0.176,0.108
7,1747143136.8754375,26,-7,-5,24.916709899902344,-6.68408203125,-5.1649932861328125,-1.6348901987075806,0.8318488597869873,-0.19282709062099457,0.12522666156291962,0.04563893377780914,-9.889341354370117,-0.32008273501575346,-0.041857584536529484,-0.21168116642266735,3.4449086669746745,2.0877092653042237,0.4987560476507765,1.1404141302253405,True,9.92,4.4290672918742615,100,0.01,0.176,0.108
7,1747143139.777236,28,-8,-5,29.088550567626953,-8.283159255981445,-4.9255828857421875,1.008685827255249,-0.6185705661773682,-0.034023385494947433,0.10540145635604858,0.03675249218940735,-10.684300422668457,0.3610194998157201,0.07395064456287413,-0.19874444719976964,2.770245203433608,1.737053779380226,0.5516910532357645,1.1272352946139452,True,9.92,5.556302586488207,100,0.01,0.176,0.108
7,1747143140.6616914,30,-9,-5,30.22669219970703,-8.981735229492188,-4.946968078613281,0.2149159014225006,-0.3185006082057953,-0.12139218300580978,-0.016237013041973114,0.07324294000864029,-9.831235885620117,0.13762334470905743,0.045173509873959065,-0.20821368814197458,2.909257223113519,2.1227132695437354,0.4559295592606264,0.23352802815868315,True,9.92,5.78983061464689,100,0.01,0.176,0.108
7,1747143144.0671425,32,-10,-5,30.879047393798828,-9.510750770568848,-5.1495208740234375,-1.7814663648605347,0.7355027794837952,-0.269159197807312,0.14641262590885162,0.03625147044658661,-9.69542407989502,-0.326893730155083,-0.07742845553026687,-0.15728430438169339,2.753755673114735,2.2593818446597305,0.5732989037796494,1.2321753307126826,True,9.92,7.022005945359573,100,0.01,0.176,0.108
7,1747143147.0318377,34,-11,-5,34.990272521972656,-11.447883605957031,-4.914588928222656,1.0997998714447021,-0.46030083298683167,-0.03700954094529152,0.011570055037736893,-0.009375125169754028,-10.769450187683105,0.36652948443000594,0.09417522167870258,-0.1688963947650081,2.6892719562892475,1.9028723328541415,0.4179746623834557,1.0901992677677383,True,9.92,8.11220521312731,100,0.01,0.176,0.108
7,1747143147.8981137,36,-12,-5,36.19947052001953,-11.974523544311523,-4.9327239990234375,0.2125653475522995,-0.15279433131217957,-0.12502269446849823,0.014979319646954536,0.04644356295466423,-9.844717025756836,0.1374515467831047,0.02698569559409679,-0.1875638983017894,2.5627257643876393,2.1836763438738047,0.5906244225620162,0.2120462177420469,True,9.92,8.324251430869358,100,0.01,0.176,0.108
7,1747143151.0299027,38,-13,-5,37.92121124267578,-13.048563957214355,-5.034019470214844,0.48682573437690735,-0.17166323959827423,0.02073655091226101,0.03561687842011452,0.044773850589990616,-9.820704460144043,0.08361063469592873,0.03253027760098237,-0.18753601985526916,2.9995780030601598,2.271048108308572,0.45957248011248486,0.09860755840558584,True,9.92,8.422858989274944,100,0.01,0.176,0.108
7,1747143155.2985609,40,-14,-5,40.0857048034668,-14.11966323852539,-4.2793121337890625,-0.23833876848220825,-0.0014995788224041462,0.7966691851615906,-0.015849802643060684,0.013215042650699615,-9.641823768615723,-0.0012980602542435056,0.0003304717729392512,-0.1893608732208406,3.0800329071166246,2.1746997850413194,0.4064739330837567,0.7355648200501034,True,9.92,9.158423809325047,100,0.01,0.176,0.108
8,1747143157.031083,0,-8,-5,39.319366455078125,-13.99656867980957,-2.8906326293945312,-0.5052295923233032,0.06614169478416443,0.7385576963424683,0.08105817437171936,0.07091288268566132,-9.869579315185547,0.00020782087409178045,1.634743186760885e-05,-0.18841801310322628,3.215670510703365,2.1424437639513694,0.5037224211854096,39.82989888343393,False,7.77,39.82989888343393,50,0.03,0.179,0.058
8,1747143157.5362458,2,-7,-5,39.039947509765625,-13.961945533752441,-2.504364013671875,-0.5604151487350464,0.06243223324418068,0.7095375657081604,0.07688470929861069,0.07781679928302765,-9.87108325958252,0.0001213797126241684,-3.147909623875765e-05,-0.1884068627366037,3.223967666866873,1.679752754254836,0.44610095519684534,37.77108147931939,False,7.77,77.60098036275332,50,0.03,0.179,0.058
8,1747143158.0407,4,-6,-5,38.744712829589844,-13.928625106811523,-2.1389923095703125,-0.6173325777053833,0.06848680227994919,0.6932920217514038,0.055775236338377,-0.005274921655654907,-9.845852851867676,4.7448212550998914e-05,-4.399897910731701e-05,-0.18830842392813996,2.7542640781115217,2.266709828823923,0.42626748347188276,35.75253180824716,False,7.77,113.35351217100049,50,0.03,0.179,0.058
8,1747143158.5445259,6,-5,-5,38.399532318115234,-13.8956880569458,-1.7513275146484375,-0.668057918548584,0.06894708424806595,0.6864824295043945,0.013154271990060806,0.09608052670955658,-9.883136749267578,-3.332935679757552e-05,-1.18472511227053e-05,-0.1882811956781835,2.9574564611784,2.3239649220517147,0.5236753354232004,33.75524897488037,False,7.77,147.10876114588086,50,0.03,0.179,0.058
8,1747143159.0484772,8,-4,-5,38.06464385986328,-13.868454933166504,-1.4032058715820312,-0.7028822302818298,0.06208033859729767,0.6824031472206116,0.14821332693099976,0.06657075881958008,-9.776090621948242,-6.186996119356226e-05,-9.057896773946415e-05,-0.18822224262629592,3.331175890614489,2.0316623835622707,0.407149972087342,31.846603291255022,False,7.77,178.95536443713587,50,0.03,0.179,0.058
8,1747143159.5527194,10,-3,-5,37.706451416015625,-13.840271949768066,-1.0535430908203125,-0.739435613155365,0.0635918378829956,0.6833362579345703,0.03153638914227486,0.09750394523143768,-9.784923553466797,-9.074502125722841e-05,-2.4504589274164618e-05,-0.18829241498117988,3.22508063097162,2.4082374090866536,0.42270234835623727,30.012221979536516,False,7.77,208.9675864166724,50,0.03,0.179,0.058
8,1747143160.0580866,12,-2,-5,37.338706970214844,-13.811358451843262,-0.7101364135742188,-0.7703290581703186,0.06768765300512314,0.6866346001625061,0.018546216189861298,-0.022154860198497772,-9.836478233337402,-1.3766654206114725e-05,-2.5779032233857312e-05,-0.18821913751733332,3.420006023921288,2.3532167961594586,0.47877940275115694,28.28358515094021,False,7.77,237.2511715676126,50,0.03,0.179,0.058
8,1747143160.5625536,14,-1,-5,36.945159912109375,-13.783443450927734,-0.36199951171875,-0.8159788250923157,0.05973746255040169,0.6886029243469238,0.12483607232570648,0.05905171483755112,-9.815529823303223,-7.32471018849261e-05,-2.2721070749621898e-05,-0.18825166140047894,2.638320529333784,2.0119568017434895,0.4854687449824814,26.67222972277787,False,7.77,263.9234012903905,50,0.03,0.179,0.058
8,1747143161.0659568,16,0,-5,36.539066314697266,-13.758539199829102,-0.020599365234375,-0.8545427322387695,0.052412379533052444,0.6916223764419556,0.06043121963739395,0.05780012160539627,-9.771366119384766,-0.00012398634224130068,-5.015982105725004e-05,-0.1882997683487735,2.847628569526254,1.896849398440699,0.46472007853953134,25.21795147656269,False,7.77,289.14135276695316,50,0.03,0.179,0.058
8,1747143161.5691824,18,1,-5,36.1028938293457,-13.732507705688477,0.32740020751953125,-0.8989477157592773,0.04978937655687332,0.696651816368103,0.04174429178237915,0.028722994029521942,-9.790338516235352,-2.2835160688431407e-05,-1.931038987573503e-05,-0.18827498527711958,2.6525800331776326,2.0026083193344206,0.525633892416473,23.940399772472727,False,7.77,313.0817525394259,50,0.03,0.179,0.058
8,1747143162.0722713,20,2,-5,35.646854400634766,-13.70860481262207,0.6761016845703125,-0.9281105399131775,0.044717565178871155,0.6988347768783569,0.12367010861635208,0.0899595245718956,-9.776298522949219,-5.1193755723783177e-05,-0.00010359389344947717,-0.18820798032768746,3.3764208855335327,2.0217143198492082,0.4899908640737862,22.886730830928624,False,7.77,335.96848337035453,50,0.03,0.179,0.058
8,1747143162.5768237,22,3,-5,35.178157806396484,-13.68692398071289,1.0205535888671875,-0.97014981508255,0.04435054212808609,0.7011105418205261,0.027380675077438354,0.018914658576250076,-9.77430248260498,4.462408488285904e-06,-4.8016745544391865e-06,-0.18824399819563117,2.764771377695197,2.123368677901575,0.4548333900192777,22.09896695831733,False,7.77,358.06745032867184,50,0.03,0.179,0.058
8,1747143163.0805454,24,4,-5,34.64994430541992,-13.663250923156738,1.3896636962890625,-1.0200319290161133,0.043646592646837234,0.6985424160957336,0.10554260015487671,0.0422520712018013,-9.812317848205566,-5.089136691337779e-05,9.471726095719792e-06,-0.18813232684846665,2.613698276652735,2.220692098264633,0.40136063255237153,21.592580879427498,False,7.77,379.6600312080993,50,0.03,0.179,0.058
8,1747143163.5853972,26,5,-5,34.1255989074707,-13.640535354614258,1.74249267578125,-1.0609335899353027,0.04112114757299423,0.7042992115020752,0.08785601705312729,0.03905850648880005,-9.82967472076416,1.5886353517806886e-05,4.841007403080703e-05,-0.18818029028827032,2.907010115036441,1.9599922585528309,0.5640570678549766,21.423261268879603,False,7.77,401.08329247697895,50,0.03,0.179,0.058
8,1747143164.0907328,28,6,-5,33.58986282348633,-13.620634078979492,2.0904312133789062,-1.0941479206085205,0.034050680696964264,0.7023285031318665,0.07199413329362869,0.10182485729455948,-9.782970428466797,-1.4212279047395854e-05,-3.165870527719189e-05,-0.1880962353790514,3.1750268006464726,1.6671809434709357,0.44343847329763136,21.598381023545812,False,7.77,422.68167350052477,50,0.03,0.179,0.058
8,1747143164.595495,30,7,-5,33.02693176269531,-13.601052284240723,2.4446029663085938,-1.1296085119247437,0.03703659027814865,0.6997890472412109,0.11911748349666595,0.05688166990876198,-9.779036521911621,-5.216100321604556e-06,-2.2715012047164222e-05,-0.1880713794194444,3.123049404757845,2.3615236510787354,0.496465752946494,22.113068182412054,False,7.77,444.79474168293683,50,0.03,0.179,0.058
8,1747143165.1006873,32,8,-5,32.447872161865234,-13.58365535736084,2.79864501953125,-1.157470941543579,0.032953087240457535,0.7003368735313416,-0.02887207269668579,0.0822930783033371,-9.882364273071289,-2.2088657033749096e-05,2.8755516018397372e-05,-0.18805171843138924,3.3232392877795696,1.9181762338485908,0.5968474389024225,22.953728067557233,False,7.77,467.74846975049405,50,0.03,0.179,0.058
8,1747143165.6065567,34,9,-5,31.86131477355957,-13.566008567810059,3.1468658447265625,-1.1996028423309326,0.03645719960331917,0.7006222009658813,0.06201741099357605,0.10041022300720215,-9.778949737548828,-1.934248331221808e-05,-2.223253693853724e-05,-0.18810018388319108,2.90464330855397,2.2737660346050745,0.49443181741232767,24.086721243711104,False,7.77,491.83519099420516,50,0.03,0.179,0.058
8,1747143166.1116712,36,10,-5,31.2502384185791,-13.549870491027832,3.4998779296875,-1.221600890159607,0.027118172496557236,0.699384868144989,0.18432189524173737,0.05412490665912628,-9.84521484375,-7.78116600566049e-05,-4.409121998722829e-05,-0.18815914399862896,3.4595640557189875,1.5999265958708166,0.5055129542106975,25.48341735411705,False,7.77,517.3186083483222,50,0.03,0.179,0.058
8,1747143166.617309,38,11,-5,30.592926025390625,-13.53630256652832,3.8697586059570312,-1.2475420236587524,0.01986798830330372,0.6999545097351074,0.1055842787027359,0.07318688929080963,-9.79554271697998,4.555329161723519e-06,-2.208241134168661e-05,-0.18811375612816147,3.3509097821909637,1.5998521760970754,0.5543319812569746,27.121347795224125,False,7.77,544.4399561435463,50,0.03,0.179,0.058
8,1747143167.1205757,40,12,-5,29.968244552612305,-13.525908470153809,4.214378356933594,-1.2738566398620605,0.020951462909579277,0.7000979781150818,0.09060551226139069,0.06442387402057648,-9.810641288757324,-2.5871875381256655e-05,-3.352942744373629e-05,-0.18804612644468718,3.358048225439236,2.252682193164602,0.5602692669044504,28.932903226043337,False,7.77,573.3728593695896,50,0.03,0.179,0.058
9,1747143179.6598165,0,8,-5,10.180237770080566,-5.846250534057617,-4.3538818359375,-2.384356737136841,2.2095487117767334,0.28770700097084045,-0.05365221947431564,-0.8349157571792603,-9.482789039611816,-0.00014627557129341112,0.0006034119464830546,-0.25052290113199766,2.8268958313016457,2.1355731619513088,0.5953627537530803,17.19806278594183,False,3.32,17.19806278594183,100,0.19,0.197,0.018
9,1747143180.1638942,2,3,-5,8.957723617553711,-4.820154190063477,-4.1496124267578125,-2.5640242099761963,1.852871298789978,0.42155367136001587,-0.09644713252782822,-0.7945849895477295,-9.592249870300293,-0.00010610019822289439,0.00046269529320341446,-0.2505311727714504,2.61695054771154,1.8869089587970667,0.4204672024041853,10.501804060224927,False,3.32,27.699866846166756,100,0.19,0.197,0.018
9,1747143180.6676676,4,8,-5,7.622602462768555,-3.9619123935699463,-3.9132003784179688,-2.750138759613037,1.510705828666687,0.5289047956466675,-0.03783426806330681,-0.6906395554542542,-9.623958587646484,-6.853157745797984e-05,0.00015197604724255195,-0.2505806112285136,3.0251272266090488,1.5895611967205259,0.5023427793545393,12.545586081653177,False,3.32,40.24545292781993,100,0.19,0.197,0.018
9,1747143181.1727538,6,3,-5,-0.9567099213600159,-52.330780029296875,-3.661651611328125,0.44662678241729736,-8.487405776977539,0.5714876651763916,-0.06046147644519806,-0.699540913105011,-9.59862232208252,-2.8670088180217687e-05,0.00010626355275152029,-0.2506067917173929,2.7583529517770096,2.017114874398463,0.5354140535763098,55.782454302314875,False,3.32,96.02790723013482,100,0.19,0.197,0.018
9,1747143181.6764703,8,8,-5,-0.33141961693763733,-57.58543395996094,-3.3832473754882812,0.3759237825870514,-8.636092185974121,0.653464674949646,0.12584209442138672,-0.698161780834198,-9.654979705810547,-0.00042312642096818285,0.0015706310369053074,-0.2497516174614999,3.1902780286901327,1.6289949907818446,0.5917510844928073,66.13225831316178,False,3.32,162.1601655432966,100,0.19,0.197,0.018
9,1747143182.1798582,10,3,-5,0.007577699143439531,-61.82439422607422,-3.069061279296875,0.3658340275287628,-8.721588134765625,0.6929379105567932,-0.004790992010384798,-0.7565461993217468,-9.790379524230957,-0.0014879173194601914,0.004653623779960976,-0.24552251548963386,2.500559052641276,2.1621387395856724,0.5953753867827811,65.61843578263087,False,3.32,227.77860132592747,100,0.19,0.197,0.018
9,1747143182.6831784,12,8,-5,0.3913816213607788,-66.23003387451172,-2.7033615112304688,0.4204806387424469,-8.703139305114746,0.6986338496208191,-0.022943660616874695,-0.7279110550880432,-9.764145851135254,-0.002090862677610883,0.007012012306464804,-0.23867310568857597,3.2803051998144497,2.1620660884667946,0.4627423720603378,75.16736325041697,False,3.32,302.9459645763444,100,0.19,0.197,0.018
9,1747143183.1865592,14,3,-5,0.8083683252334595,-70.14971160888672,-2.3613739013671875,0.5180110335350037,-8.595126152038574,0.6944994330406189,-0.021740227937698364,-0.6377935409545898,-9.905844688415527,-0.002114340687385275,0.007489763630180554,-0.2323594008668981,2.6518177084261016,2.1680430158178936,0.5154009876009662,74.37648689199017,False,3.32,377.3224514683346,100,0.19,0.197,0.018
9,1747143183.689721,16,8,-5,1.307950735092163,-74.01114654541016,-2.0093841552734375,0.6415996551513672,-8.382875442504883,0.6883224844932556,-0.003957157954573631,-0.581646203994751,-9.788379669189453,-0.0019593324591162258,0.007353376730150402,-0.227070012546391,2.8650326805648914,1.5475145753079493,0.44346715663144143,83.37042792516989,False,3.32,460.6928793935045,100,0.19,0.197,0.018
9,1747143184.198131,18,3,-5,1.8820189237594604,-77.65454864501953,-1.6607894897460938,0.7866296172142029,-8.129715919494629,0.6789470911026001,0.06441644579172134,-0.5647515654563904,-9.790799140930176,-0.001978121880010786,0.007131795348655006,-0.22327193097324802,2.629406238326191,1.6248023830507177,0.4578391586063124,82.31704475950082,False,3.32,543.0099241530053,100,0.19,0.197,0.018
9,1747143184.7024772,20,8,-5,2.5662364959716797,-81.19026184082031,-1.3035354614257812,0.947508692741394,-7.834181308746338,0.6657503843307495,0.05267427861690521,-0.43907082080841064,-9.943270683288574,-0.0019674639382435567,0.007284961200165702,-0.22099467404991902,3.2607716225505996,2.0263258261187342,0.5704199576890394,90.95329992492529,False,3.32,633.9632240779306,100,0.19,0.197,0.018
9,1747143185.2067008,22,3,-5,3.359503984451294,-84.42903900146484,-0.9517593383789062,1.1526175737380981,-7.4300761222839355,0.644882321357727,-0.010224729776382446,-0.36906689405441284,-9.854483604431152,-0.0020345543820116945,0.007577353781860575,-0.22048389474670918,2.8540963541248807,1.648274098002158,0.48676581709260136,89.48571508838576,False,3.32,723.4489391663163,100,0.19,0.197,0.018
9,1747143185.710068,24,8,-5,4.315200328826904,-87.4306411743164,-0.5910491943359375,1.3961225748062134,-6.937397480010986,0.621456503868103,0.00956733524799347,-0.41863784193992615,-9.888915061950684,-0.0021396547246085064,0.00790051995691084,-0.22238169532049704,2.8105258100398527,2.079592836080345,0.4842039787701793,97.53941490619121,False,3.32,820.9883540725075,100,0.19,0.197,0.018
9,1747143186.216034,26,3,-5,5.439579486846924,-90.0865478515625,-0.2209014892578125,1.6832014322280884,-6.325651168823242,0.6111657619476318,-0.045689258724451065,-0.25741055607795715,-9.846858024597168,-0.0022645424829951222,0.008363656296129653,-0.22690606603487926,3.0089259853646877,1.7184759217499508,0.5641393724215504,95.44986152517089,False,3.32,916.4382155976784,100,0.19,0.197,0.018
9,1747143186.7195456,28,8,-5,6.833742618560791,-92.44744110107422,0.18144989013671875,2.0378308296203613,-5.563687801361084,0.5869948267936707,0.042693842202425,-0.22541910409927368,-9.955944061279297,-0.002370445899375729,0.008839667032488582,-0.23546268613837829,2.7631075003421794,1.7210511447078676,0.45646335201332755,102.78397880144114,False,3.32,1019.2221943991195,100,0.19,0.197,0.018
9,1747143187.2228572,30,3,-5,8.354534149169922,-94.1938247680664,0.5724563598632812,2.4178500175476074,-4.754793167114258,0.5706471800804138,-0.01690390147268772,-0.15601445734500885,-9.9192533493042,-0.0024382673348092064,0.009427591577058542,-0.24873176784087786,3.0614645702374075,1.8656308180071646,0.5174779341933533,99.73072763610837,False,3.32,1118.9529220352279,100,0.19,0.197,0.018
9,1747143187.726423,32,8,-5,10.132563591003418,-95.48839569091797,0.990753173828125,2.835848569869995,-3.8491768836975098,0.5612195134162903,0.020323200151324272,-0.03769122064113617,-10.005288124084473,-0.002197338354526272,0.009115144265940914,-0.2647876332086328,2.8734316485783618,1.5785181457151671,0.5299611919268463,105.94301270669646,False,3.32,1224.8959347419243,100,0.19,0.197,0.018
9,1747143188.2314563,34,3,-5,11.8507719039917,-96.84077453613281,1.36785888671875,2.970628261566162,-3.4715490341186523,0.5246814489364624,0.046173810958862305,-0.030881239101290703,-9.8299560546875,-0.0004761021924643665,0.0018532441640238693,-0.2690520182164698,3.2812589056935946,1.7595500876106351,0.425675543337615,102.46618072332487,False,3.32,1327.3621154652492,100,0.19,0.197,0.018
9,1747143188.7349176,36,8,-5,13.647537231445312,-97.90756225585938,1.7572250366210938,3.127298593521118,-3.0758109092712402,0.5393481850624084,0.0602334588766098,0.09084437042474747,-9.91862964630127,-0.0012280980707064753,0.005194012689645033,-0.2754239528189692,2.716166367200909,1.8298236511631734,0.5886203975379738,108.45139199196058,False,3.32,1435.8135074572097,100,0.19,0.197,0.018
9,1747143189.2404075,38,3,-5,15.828059196472168,-98.26361083984375,2.21826171875,3.451221466064453,-2.369767427444458,0.5211825370788574,0.09255880862474442,-0.010218041017651558,-10.07838249206543,-0.001309916422075548,0.005922603494745862,-0.28815462403852865,2.8653988442849014,2.3432852427292548,0.514961642808295,103.91350798408662,False,3.32,1539.7270154412963,100,0.19,0.197,0.018
9,1747143189.745028,40,8,-5,20.630598068237305,-93.21554565429688,2.9352569580078125,5.996077060699463,3.019115924835205,1.0323008298873901,0.05470189452171326,0.061538293957710266,-11.826157569885254,3.043211990900288e-05,-0.001608978234273446,-0.7281461763952446,2.708516354625774,2.32856237737955,0.4871207054801196,103.3572867111015,False,3.32,1643.0843021523979,100,0.19,0.197,0.018
10,1747143191.5732844,0,-9,-5,33.523681640625,-83.03723907470703,5.119361877441406,7.073609828948975,5.41375207901001,0.5026374459266663,0.2701728045940399,0.5049677491188049,-9.653694152832031,0.001625749644301124,0.005665679786427445,-0.7452754941129325,3.096187451174755,1.9783445793468104,0.47428681054296523,81.90086376439456,False,8.73,81.90086376439456,50,0.12,0.182,0.086
10,1747143192.0767863,2,-8,-5,37.37427520751953,-79.49403381347656,5.635581970214844,7.46138858795166,6.072290420532227,0.692962110042572,0.33598896861076355,0.758959174156189,-9.713271141052246,0.0004595428936487482,0.0015089973018846898,-0.742607153882058,2.598710670404007,2.108696089291928,0.5985555004709178,80.47267748264015,False,8.73,162.37354124703472,50,0.12,0.182,0.086
10,1747143192.582033,4,-7,-5,41.18661880493164,-76.34718322753906,6.2896270751953125,7.7544097900390625,6.387900352478027,0.8242560625076294,0.28327223658561707,0.9509844183921814,-9.840706825256348,-0.0003127236494826104,0.00039402802000993575,-0.7423227796380057,3.264486088477077,1.9090442128795164,0.5430889330780125,79.49422695538433,False,8.73,241.86776820241906,50,0.12,0.182,0.086
10,1747143193.0876317,6,-6,-5,45.110538482666016,-73.19865417480469,7.068412780761719,8.150477409362793,6.7153778076171875,0.9594694972038269,0.2682294249534607,1.3287054300308228,-9.90596866607666,-0.00017181322133997366,0.0004980227872096017,-1.1787286583510088,2.8741765171901243,1.7160029381286654,0.5437969745306924,78.68252620725868,False,8.73,320.55029440967775,50,0.12,0.182,0.086
10,1747143193.593002,8,-5,-5,55.078060150146484,-52.625186920166016,8.48175048828125,11.233346939086914,15.459112167358398,1.5309847593307495,0.38981863856315613,1.5344088077545166,-10.26041030883789,0.0010116038245350956,0.0012764788086148786,-1.1730071079044522,2.6896284119030995,1.7101258396153038,0.41751624487732186,68.31002688412467,False,8.73,388.86032129380243,50,0.12,0.182,0.086
10,1747143194.0990474,10,-4,-5,60.79883575439453,-44.085514068603516,9.681961059570312,11.911677360534668,16.590999603271484,1.8505500555038452,0.409461110830307,1.6666748523712158,-9.089933395385742,0.006750883247276012,0.003833768429472849,-1.0526620999612526,2.7417235094671266,2.046947946702757,0.5624681619257993,66.3545788374917,False,8.73,455.21490013129414,50,0.12,0.182,0.086
10,1747143194.6021602,12,-3,-5,66.84126281738281,-34.582950592041016,10.929901123046875,12.554813385009766,18.242979049682617,2.484858989715576,0.5039805769920349,2.1564059257507324,-8.452179908752441,0.007363885359599039,0.005815185733504148,-0.823131917852659,2.5289264887987057,1.7071914250131173,0.43238184893626985,65.25954815423263,False,8.73,520.4744482855268,50,0.12,0.182,0.086
10,1747143195.1056244,14,-2,-5,72.92182922363281,-24.445524215698242,12.345916748046875,12.953899383544922,19.932077407836914,3.1811790466308594,0.4649774432182312,2.2699697017669678,-8.243085861206055,0.003923110535316244,0.00395564127617424,-0.6228653781114776,2.9734650292665656,2.1489692922450434,0.5629676385299222,65.39468131435935,False,8.73,585.8691295998862,50,0.12,0.182,0.086
10,1747143195.611929,16,-1,-5,79.18341827392578,-13.538714408874512,14.091575622558594,13.224217414855957,21.52253532409668,3.9535369873046875,0.42185845971107483,2.646993398666382,-8.163823127746582,0.002439947162538568,0.000837163625975742,-0.4928131395210072,3.240087907582266,2.1384518475462495,0.44490823208721086,67.18520643383519,False,8.73,653.0543360337214,50,0.12,0.182,0.086
10,1747143196.1159108,18,0,-5,85.4959945678711,-2.132944345474243,16.218490600585938,13.42612361907959,23.017833709716797,4.846850872039795,0.4149385988712311,3.087660551071167,-8.050676345825195,0.0014376675421485874,-0.002175478541733569,-0.39572211450054356,2.9512361344812814,1.8933167737037793,0.4619012765759248,70.78476585858095,False,8.73,723.8391018923023,50,0.12,0.182,0.086
10,1747143196.6216497,20,1,-5,92.17350769042969,10.361068725585938,18.841941833496094,13.533523559570312,24.490402221679688,5.591070175170898,0.5054043531417847,3.3739893436431885,-8.280073165893555,0.0003387640396350683,-0.005360447782923204,-0.3172978070302074,3.146914236102751,1.7122282947127665,0.40250547704827705,76.58382995396265,False,8.73,800.422931846265,50,0.12,0.182,0.086
10,1747143197.1298618,22,2,-5,98.39460754394531,22.36050796508789,21.522262573242188,13.53944206237793,25.665071487426758,5.969131946563721,0.4807623326778412,3.4575693607330322,-8.932024002075195,-0.0007995405528750935,-0.008126398426139478,-0.24601793967681565,2.9175181137560453,2.138264323512945,0.5201792468405151,83.3913470235002,False,8.73,883.8142788697652,50,0.12,0.182,0.086
10,1747143197.6333745,24,3,-5,104.73267364501953,34.91815185546875,24.41417694091797,13.51496696472168,26.832517623901367,6.2985053062438965,0.45003581047058105,3.891555070877075,-9.002205848693848,-0.0018489218286563871,-0.009780339469558539,-0.18110613803678416,2.706371170742755,1.6712148373445568,0.5076958022756793,91.66093397327798,False,8.73,975.4752128430432,50,0.12,0.182,0.086
10,1747143198.1381695,26,4,-5,110.95963287353516,47.539703369140625,27.23548126220703,13.416593551635742,27.76079559326172,6.049168109893799,0.46967387199401855,3.922769069671631,-9.820082664489746,-0.0032593211120793553,-0.012277923502115966,-0.11431543546901586,2.7410962933787477,2.366199870485019,0.4110201824693134,100.76195333400763,False,8.73,1076.2371661770508,50,0.12,0.182,0.086
10,1747143198.643538,28,5,-5,117.37122344970703,60.79287338256836,30.059417724609375,13.375797271728516,28.86690902709961,5.966475009918213,0.48718026280403137,4.232823371887207,-9.712911605834961,-0.0018611320534896972,-0.0068326080548629115,-0.0643412330217353,2.5954034173482343,1.680941670687081,0.47657879446705664,111.03703468829409,False,8.73,1187.274200865345,50,0.12,0.182,0.086
10,1747143199.1478474,30,6,-5,124.04472351074219,75.0982437133789,32.93019104003906,13.524675369262695,30.499387741088867,5.9243621826171875,0.4328569769859314,4.190941333770752,-9.317713737487793,-0.0007170512471080924,-0.002952531349363207,-0.0587500585967431,3.09485610323353,2.0438356869345733,0.5317003733635931,122.70972535548808,False,8.73,1309.983926220833,50,0.12,0.182,0.086
10,1747143199.6533432,32,7,-5,130.35910034179688,86.15266418457031,35.45983123779297,14.042025566101074,27.197006225585938,5.352391242980957,0.4829133450984955,4.326665878295898,-9.018710136413574,-0.0011342692330867656,-0.004855790699799717,-0.8711998832393549,2.5063094181718237,1.6263109779513978,0.5956272386550148,132.5769769279482,False,8.73,1442.560903148781,50,0.12,0.182,0.086
10,1747143200.15666,34,8,-5,137.86195373535156,99.66358947753906,37.91728210449219,15.23190689086914,27.627836227416992,5.218271732330322,0.3642089366912842,4.132937431335449,-9.227442741394043,0.002708023522550778,-0.002975081848377052,-0.8961680194708203,3.124284110508355,2.32554990529208,0.5706298280620197,145.0221092553397,False,8.73,1587.5830124041208,50,0.12,0.182,0.086
10,1747143200.6606293,36,9,-5,145.09722900390625,113.04313659667969,40.28770446777344,15.992708206176758,28.006908416748047,5.172847747802734,0.4650171995162964,4.285782814025879,-9.701715469360352,0.00769051644265747,-0.012721518504904593,-0.9414306476950426,2.930528960549368,2.0020831924625817,0.5120210695703583,157.41078687677822,False,8.73,1744.993799280899,50,0.12,0.182,0.086
10,1747143201.165682,38,10,-5,152.8492889404297,126.86625671386719,42.633453369140625,17.246767044067383,28.74462127685547,4.901443958282471,0.3783848285675049,4.27598762512207,-9.897794723510742,0.001141297981216702,-0.002513480962537026,-0.9631582603987969,3.3464333044211187,1.699180059158498,0.5692677490071011,170.63712083923565,False,8.73,1915.6309201201348,50,0.12,0.182,0.086
10,1747143201.6692126,40,11,-5,161.0673065185547,140.8010711669922,44.801536560058594,18.576675415039062,29.476459503173828,4.632432460784912,0.4306117296218872,4.20891809463501,-9.864843368530273,0.004146972907134554,-0.007718028578089486,-0.982161428822567,3.1996228769015063,1.9327984816047539,0.40757031101964225,184.35239034929572,False,8.73,2099.9833104694303,50,0.12,0.182,0.086
11,1747143264.7554917,0,2,-12,0.7829102873802185,1.5547562837600708,-12.020965576171875,0.9162713289260864,-0.5467010140419006,0.08972137421369553,-0.028367817401885986,0.06967548280954361,-10.49782943725586,0.38986517622108124,0.10247669531768185,-0.367701741150342,3.461654673745647,2.3446991931020618,0.45539287653287175,0.9009051228187892,True,5.64,0.9009051228187892,100,0.08,0.128,0.198
11,1747143266.3961542,2,2,-11,1.5468932390213013,2.699387788772583,-11.074295043945312,-0.17677728831768036,0.45468825101852417,0.3365675210952759,0.036465298384428024,0.03768666088581085,-10.659314155578613,-0.06822332887221651,-0.0941634068577122,-0.4609559630957354,2.730230412295753,1.5169156885076236,0.5555830007263677,0.8366413625225846,True,5.64,1.7375464853413738,100,0.08,0.128,0.198
11,1747143269.2956214,4,2,-10,4.240917682647705,1.7216389179229736,-9.962249755859375,0.6527057886123657,-0.3348137140274048,-0.08709757030010223,0.07764932513237,0.12175347656011581,-10.060791015625,0.20286675975036228,0.030769840266736525,-0.4901301084942221,2.9093132395269192,1.6179468282804945,0.4840859644997495,0.37006932156031275,True,5.64,2.1076158069016864,100,0.08,0.128,0.198
11,1747143271.6078076,6,2,-9,5.757283687591553,2.04811429977417,-9.0345458984375,0.2047082781791687,0.45739689469337463,0.140773743391037,-0.012692052870988846,0.05237129330635071,-10.213602066040039,0.0003383516329656552,-0.04460706026635797,-0.48245212154423045,2.6824483316580987,1.5721138720083374,0.584287131399155,0.24983917477202755,True,5.64,2.357454981673714,100,0.08,0.128,0.198
11,1747143274.2103813,8,2,-8,8.115078926086426,2.0973961353302,-7.9712371826171875,0.5197896361351013,-0.3255711495876312,0.010807051323354244,0.04447878524661064,0.008017852902412415,-10.062137603759766,0.1212817682331755,-0.013652258419377731,-0.47923237736381846,2.7248542147811343,2.0124365739673227,0.5889980204632178,0.15348115868164647,True,5.64,2.5109361403553603,100,0.08,0.128,0.198
11,1747143276.5863633,10,2,-7,9.872146606445312,1.841839075088501,-7.01708984375,0.34681951999664307,0.28130316734313965,0.09166189283132553,-0.0650704950094223,0.0539945624768734,-10.133994102478027,0.048638290144017875,-0.013051471538547943,-0.467055256019459,2.9588981369639566,1.5275736114065208,0.5171312776916319,0.20409172244780055,True,5.64,2.715027862803161,100,0.08,0.128,0.198
11,1747143279.0470896,12,2,-6,12.016974449157715,2.1764719486236572,-5.9926605224609375,0.5233947038650513,-0.16623222827911377,0.048149269074201584,-0.07471704483032227,0.14403793215751648,-10.221038818359375,0.08672580335533982,-0.03602114131560352,-0.46290876858916713,2.995475791696711,2.2938806465424535,0.4335080682851016,0.17743829492470042,True,5.64,2.8924661577278616,100,0.08,0.128,0.198
11,1747143281.2729933,14,2,-5,13.898829460144043,1.8560271263122559,-5.031501770019531,0.45099058747291565,0.08039411157369614,0.1034795269370079,0.0010913219302892685,0.07515483349561691,-10.24842643737793,0.07287355687793645,-0.0024874879141207904,-0.45567216810860356,3.384913725244384,2.066698263725014,0.41464058619723804,0.17876249049231877,True,5.64,3.0712286482201803,100,0.08,0.128,0.198
11,1747143283.645518,16,2,-4,15.960379600524902,2.0835320949554443,-4.002799987792969,0.5218128561973572,0.0031713347416371107,0.07285936176776886,0.007939194329082966,0.036960091441869736,-10.165290832519531,0.07527960159919803,-0.03640729053335516,-0.4514669475053867,2.6406086628060668,2.110458119599483,0.5092593381110803,0.09249446942305503,True,5.64,3.163723117643235,100,0.08,0.128,0.198
11,1747143285.9151702,18,2,-3,17.925565719604492,1.956530213356018,-3.0257720947265625,0.49709615111351013,-0.026180250570178032,0.11097454279661179,0.005494497716426849,0.001827530562877655,-10.283488273620605,0.0781274965324469,-0.00941283817921873,-0.4485202972468269,3.0804795371436393,1.7169416955511878,0.4006935287518275,0.08996824615087981,True,5.64,3.253691363794115,100,0.08,0.128,0.198
11,1747143288.2255478,20,2,-2,19.946224212646484,1.988679051399231,-2.005828857421875,0.5097852945327759,0.05872344970703125,0.0929117426276207,0.02314680814743042,0.09514316916465759,-10.215298652648926,0.07554366183391897,-0.02690642881608077,-0.4435384166473348,3.0893121690772753,2.2854437933942005,0.5911529087091842,0.05526277916967561,True,5.64,3.308954142963791,100,0.08,0.128,0.198
11,1747143290.4730752,22,2,-1,21.931753158569336,2.0261731147766113,-1.0213851928710938,0.519653856754303,-0.024411113932728767,0.10678691416978836,-0.04486627131700516,0.03945232182741165,-10.2698335647583,0.0759554350250656,-0.02329307819238755,-0.4400730874728819,3.4847596874645403,2.3010557734070116,0.4866244276189153,0.07615766393808146,True,5.64,3.3851118069018726,100,0.08,0.128,0.198
11,1747143292.7470763,24,2,0,23.9555606842041,1.9517958164215088,-0.01678466796875,0.4970836043357849,0.026898011565208435,0.10063101351261139,-0.0032036881893873215,0.05852966755628586,-10.183011054992676,0.08078037861400277,-0.01740268351144967,-0.4367325125646231,3.4761546943626778,1.6870552582719527,0.5370723769287172,0.06767733137245921,True,5.64,3.4527891382743316,100,0.08,0.128,0.198
11,1747143295.0179179,26,2,1,25.915273666381836,2.0047566890716553,0.9783554077148438,0.5285772085189819,0.019893992692232132,0.09460398554801941,-0.00689106248319149,0.04211188852787018,-10.208961486816406,0.07361845241133048,-0.021730401879292843,-0.429973872858702,2.8861310816604795,1.5538875845972697,0.43688469115222206,0.08757662972786455,True,5.64,3.540365768002196,100,0.08,0.128,0.198
11,1747143297.2448914,28,2,2,27.937219619750977,2.008871555328369,1.9726943969726562,0.5121818780899048,-0.019456772133708,0.10113759338855743,0.0008344622328877449,0.05144035071134567,-10.257208824157715,0.07809834691570028,-0.019602580854566284,-0.4244972361034589,2.8921438264076484,1.8892813578880574,0.4053675756539144,0.06903388005061842,True,5.64,3.6093996480528143,100,0.08,0.128,0.198
11,1747143299.5174065,30,2,3,29.9298038482666,1.966285228729248,2.980682373046875,0.5272406935691833,0.030763786286115646,0.10685060173273087,0.010348254814743996,0.06905203312635422,-10.165197372436523,0.07907234450836342,-0.017356888116184948,-0.4212298275016642,2.5695394551391417,1.871283648691936,0.4004687032598644,0.08023313673986278,True,5.64,3.689632784792677,100,0.08,0.128,0.198
11,1747143301.794331,32,2,4,31.94475555419922,2.0203421115875244,3.989532470703125,0.5063048601150513,0.005420973990112543,0.10153276473283768,0.027281632646918297,0.07109217345714569,-10.161474227905273,0.07762288034129837,-0.0244177958936957,-0.4171387215091998,2.9343863396127086,2.0549236876112493,0.4365758635455792,0.05979397515850312,True,5.64,3.7494267599511804,100,0.08,0.128,0.198
11,1747143304.0653934,34,2,5,33.93706130981445,1.9919100999832153,4.987800598144531,0.5113385915756226,-0.007413344457745552,0.09948629885911942,0.0477714017033577,0.037600379437208176,-10.19424819946289,0.07887204556440292,-0.017629084598684876,-0.41395904172061826,2.9320360086762913,2.0900536277727824,0.5012704127714619,0.06461850052566248,True,5.64,3.814045260476843,100,0.08,0.128,0.198
11,1747143306.3350239,36,2,6,35.94643783569336,1.9791624546051025,5.9833984375,0.5044732093811035,0.03197760879993439,0.10466169565916061,0.013086921535432339,0.012826986610889435,-10.168023109436035,0.07861254194760936,-0.02002538590167983,-0.40914285471734,3.231457242593222,2.2994342996730683,0.5202927408615742,0.059822409018171326,True,5.64,3.8738676694950143,100,0.08,0.128,0.198
11,1747143308.6065767,38,2,7,37.9272346496582,2.003805160522461,6.986854553222656,0.5111504197120667,-0.004212808329612017,0.09844765812158585,0.07097169011831284,0.04931717365980148,-10.145546913146973,0.07657121505386544,-0.01728916888980412,-0.40443472367481675,2.694577796548004,1.5732313911515998,0.5806312908244573,0.07404105771760768,True,5.64,3.947908727212622,100,0.08,0.128,0.198
11,1747143310.8581357,40,2,8,39.943450927734375,1.9907331466674805,7.9862518310546875,0.5120226740837097,0.008679474703967571,0.093133844435215,-0.060913823544979095,-0.003989890217781067,-10.2042875289917,0.07888631340077383,-0.01800172839796929,-0.400800218317392,2.593320741826331,2.312396770217348,0.45403861337032236,0.05892948577866739,True,5.64,4.00683821299129,100,0.08,0.128,0.198
12,1747143433.9251008,0,7,-5,0.5715652108192444,6.479048252105713,-5.001655578613281,0.7972500920295715,-0.7537762522697449,0.06995074450969696,0.045222245156764984,0.03501163795590401,-10.393766403198242,0.3591770827559399,0.14243819156834678,-0.3776688714991412,3.0875534933892057,1.9089793863723985,0.5981556125458017,0.773356486229672,True,5.45,0.773356486229672,50,0.17,0.144,0.023
12,1747143438.2114327,2,2,-5,1.7847886085510254,1.9883840084075928,-5.026397705078125,0.13901183009147644,0.5834843516349792,0.036918167024850845,-0.0578184612095356,0.09267865866422653,-9.880816459655762,-0.002601716428330607,-0.01936544919768197,-0.5036815744955486,2.697620997858092,2.204609192116296,0.5588225854045256,0.2171352415050821,True,5.45,0.9904917277347541,50,0.17,0.144,0.023
12,1747143445.687,4,7,-5,3.905360460281372,7.481057167053223,-5.023689270019531,0.48852649331092834,0.5490236878395081,0.05510414391756058,0.07848769426345825,0.041907064616680145,-9.889032363891602,-0.008206017496483557,-0.14197766485849267,-0.38880163049771843,2.5698582615902525,1.7036491626871735,0.5476986162163462,0.49085010131962303,True,5.45,1.4813418290543772,50,0.17,0.144,0.023
12,1747143448.2902927,6,2,-5,6.149527072906494,0.6782525181770325,-4.901161193847656,0.2872191369533539,-1.5763195753097534,-0.1853685975074768,-0.08098138123750687,0.06473162770271301,-10.621478080749512,0.24609269873755624,0.3532908380742183,-0.4285108479757026,3.1317999239316507,1.7253997763323787,0.5632500375850138,1.3338455161070792,True,5.45,2.8151873451614566,50,0.17,0.144,0.023
12,1747143456.237731,8,7,-5,8.303592681884766,7.6741156578063965,-4.999168395996094,-0.10681377351284027,1.0164825916290283,0.03301052376627922,-0.027156129479408264,-0.017733551561832428,-10.160688400268555,-0.07575525162620321,-0.2250892602627967,-0.46009022123304283,2.816623000564542,2.0641886453225924,0.5581512696080246,0.7393247785371152,True,5.45,3.5545121236985717,50,0.17,0.144,0.023
12,1747143458.9268,10,2,-5,10.639412879943848,0.4746476411819458,-4.87017822265625,0.2588318884372711,-1.7773655652999878,-0.2378559410572052,0.002418853808194399,0.2166893184185028,-10.904611587524414,0.34414869812826937,0.34404612389660183,-0.46417809014363093,3.0775691992813496,2.2888423767770085,0.4505334683222278,1.659036570863517,False,5.45,5.213548694562089,50,0.17,0.144,0.023
12,1747143464.2206705,12,7,-5,12.095715522766113,5.7573418617248535,-4.85919189453125,-0.25875502824783325,-1.469761610031128,-0.2729468047618866,0.08622445911169052,0.24255190789699554,-10.52765941619873,0.17152997455719898,0.3174105310868479,-0.5181767860420898,3.418482120328642,2.1418231419926475,0.5602831628636817,1.2542677674585847,True,5.45,6.467816462020673,50,0.17,0.144,0.023
12,1747143471.6365879,14,2,-5,13.916093826293945,1.5153862237930298,-5.022735595703125,0.48404064774513245,-0.013148610480129719,0.01922795921564102,0.09310951083898544,0.024638092145323753,-9.885406494140625,0.08567812564799641,0.05567933801581824,-0.5764609345496321,3.1297590993027136,1.5097415020056415,0.49401136472759083,0.4923491295691971,True,5.45,6.96016559158987,50,0.17,0.144,0.023
12,1747143474.135988,16,7,-5,16.365312576293945,8.114678382873535,-4.913810729980469,0.24525856971740723,1.4801356792449951,-0.018864495679736137,0.08783631026744843,0.08496274054050446,-10.633021354675293,-0.13630189599477407,-0.3585125708440662,-0.5892031354181113,2.8130042025314355,1.72636095141099,0.4792251256040328,1.1761759077240865,True,5.45,8.136341499313957,50,0.17,0.144,0.023
12,1747143476.8053243,18,2,-5,18.42328643798828,0.14465679228305817,-4.7838287353515625,0.21569888293743134,-2.002164840698242,-0.38848626613616943,0.04137977212667465,0.21551942825317383,-11.156023025512695,0.3871382592114411,0.36952817640443525,-0.5813708374748169,3.418983638354596,2.335611381609733,0.5139610607275783,1.9152545111984212,False,5.45,10.051596010512378,50,0.17,0.144,0.023
12,1747143482.1734812,20,7,-5,19.94687271118164,5.7319536209106445,-4.851036071777344,-0.27320748567581177,-1.5730421543121338,-0.2822433114051819,0.020674172788858414,0.16528157889842987,-10.630279541015625,0.19923582816595267,0.31734370717307137,-0.6533881245259467,3.3358426266198316,1.80065761664842,0.574625918718136,1.2778710342794142,True,5.45,11.329467044791793,50,0.17,0.144,0.023
12,1747143491.4998226,22,2,-5,22.32703399658203,2.0528931617736816,-5.004508972167969,-0.3952697515487671,0.2992989718914032,0.010628286749124527,0.045808345079422,0.10741580277681351,-9.822744369506836,-0.028024059277848266,-0.03127263012255097,-0.7089064271955423,3.010926731335894,1.95403167146234,0.4354549194829584,0.3313144311871193,True,5.45,11.660781475978911,50,0.17,0.144,0.023
12,1747143494.1059732,24,7,-5,24.097644805908203,8.126615524291992,-4.949043273925781,0.7732048034667969,0.8694635033607483,0.03534436598420143,0.05080965533852577,0.03463948145508766,-10.311436653137207,-0.13590213779119448,-0.30058544642463586,-0.7386901276188034,2.7648398260793225,2.460995121715441,0.5998575234235319,1.1319865880958015,True,5.45,12.792768064074712,50,0.17,0.144,0.023
12,1747143496.6503525,26,2,-5,26.300537109375,0.24148358404636383,-4.811805725097656,0.06649024039506912,-1.9296290874481201,-0.3273889720439911,-0.008324496448040009,0.1676667481660843,-11.015944480895996,0.3897956927761477,0.3293727255784695,-0.7189900150203553,2.9929640535771487,1.7649113122292617,0.4052729562946424,1.7939118218005927,False,5.45,14.586679885875306,50,0.17,0.144,0.023
12,1747143499.5081887,28,7,-5,28.285158157348633,9.071979522705078,-4.7621612548828125,0.36609193682670593,2.0047922134399414,-0.16605569422245026,0.08773784339427948,-0.024502743035554886,-11.598397254943848,-0.33213661380143245,-0.45913278978196737,-0.7405788111761102,2.946549602749303,2.2926755952726054,0.5630926710527506,2.104989687834729,False,5.45,16.691669573710033,50,0.17,0.144,0.023
12,1747143504.9054072,30,2,-5,29.96465492248535,3.2935941219329834,-4.877540588378906,-0.288361132144928,1.5501322746276855,-0.09203837066888809,0.03835810720920563,0.11185784637928009,-10.888343811035156,-0.30603494004249765,-0.2419919648580827,-0.7741902819323322,2.745628483614193,1.586413647324573,0.5659186212134272,1.2998581977656898,True,5.45,17.991527771475724,50,0.17,0.144,0.023
12,1747143512.3844697,32,7,-5,31.960275650024414,7.451064109802246,-5.026847839355469,0.45585691928863525,-0.1254824995994568,0.04560814052820206,-0.02925856038928032,0.017773181200027466,-9.814018249511719,-0.015968078371263187,-0.07451566766017181,-0.8193065930939502,3.297549287111701,2.0150688923778324,0.5225079707394176,0.45360518252190707,True,5.45,18.445132953997632,50,0.17,0.144,0.023
12,1747143514.8426917,34,2,-5,34.37115478515625,0.8928114175796509,-4.9393463134765625,0.2847365438938141,-1.523356318473816,-0.11455307900905609,-0.009128225967288017,0.1770828515291214,-10.530354499816895,0.34788648378699194,0.17850589102254205,-0.8375425945276217,3.0770876508913174,2.2649602091204626,0.40060054489022445,1.1693165958264886,True,5.45,19.61444954982412,50,0.17,0.144,0.023
12,1747143517.5112214,36,7,-5,36.35468673706055,8.749693870544434,-4.803184509277344,0.15988095104694366,1.9992613792419434,-0.14049918949604034,0.11149049550294876,0.09598952531814575,-11.382091522216797,-0.3486111087015226,-0.3905096790685066,-0.8431606017459073,3.2099323925674805,1.9346495941160309,0.44677981664525196,1.79609789807121,False,5.45,21.41054744789533,50,0.17,0.144,0.023
12,1747143522.8861046,38,2,-5,37.82147216796875,3.2032229900360107,-4.892875671386719,-0.27835288643836975,1.5563464164733887,-0.0860498920083046,0.055077921599149704,0.06445853412151337,-10.872175216674805,-0.33288433495182157,-0.18424043942333435,-0.873198987879593,3.4238126017746127,1.9966179963088138,0.579716466791184,1.2211033422040178,True,5.45,22.631650790099346,50,0.17,0.144,0.023
12,1747143530.57523,40,7,-5,40.13724899291992,7.494401454925537,-5.0193634033203125,0.39800170063972473,-0.2389586865901947,0.04641357809305191,-0.0037661027163267136,0.10290618240833282,-9.868379592895508,-0.007448054387324293,-0.08460882242514259,-0.9169318206741139,3.1755228160204014,1.9294778624768096,0.5492047768769968,0.5134637534219585,True,5.45,23.145114543521306,50,0.17,0.144,0.023
13,1747143629.1422625,2.0,0.0,-5,1.0627632141113281,0.6576612591743469,-5.307106018066406,-0.914944589138031,1.081904649734497,0.28199684619903564,-0.12251397967338562,0.028523875400424004,-10.214369773864746,0.1645860853413601,0.3475810247627597,-2.789452958124306,3.211416029768142,1.8828108974366269,0.5497355979158697,1.1854303990426092,True,4.28,1.1854303990426092,100,0.02,0.101,0.161
13,1747143636.4747293,2.197817453308123,1.1779369011450798,-4,2.375366687774658,1.4114375114440918,-4.006919860839844,0.5307592153549194,-0.32907137274742126,0.02480461820960045,-0.07181698083877563,-0.04855083301663399,-9.828428268432617,-0.11921839483277007,-0.02725009737160611,-2.779125996590685,2.994351053414995,1.6547685517500623,0.45470716702825087,0.293418046724646,True,4.28,1.4788484457672553,100,0.02,0.101,0.161
13,1747143638.9941247,2.1482208132215868,2.4646321509654174,-3,2.091237783432007,2.485809803009033,-2.9256744384765625,-0.42379656434059143,0.5427020788192749,-0.025841504335403442,-0.030911851674318314,-0.09569552540779114,-10.156038284301758,0.005009142451912711,0.10942898288607332,-2.7743021778997643,2.7113314696431186,2.125706938694578,0.47148489238126073,0.09602003814753933,True,4.28,1.5748684839147946,100,0.02,0.101,0.161
13,1747143640.863244,1.8081204253903274,3.7673112991572864,-2,1.5272084474563599,3.701746702194214,-2.0799789428710938,0.1740584522485733,0.326997846364975,0.22385257482528687,-0.07806945592164993,0.023058023303747177,-10.341930389404297,-0.010499059087961253,0.06842973471814444,-2.778920997084254,2.780081587651845,1.8020147113646379,0.54841106686762,0.29934409468783857,True,4.28,1.8742125786026331,100,0.02,0.101,0.161
13,1747143643.1949413,1.169091277972464,4.978795995661454,-1,1.4014395475387573,4.914683818817139,-0.972686767578125,-0.31072816252708435,0.3931213915348053,0.015734156593680382,-0.11937333643436432,0.031718481332063675,-10.055227279663086,-0.036825757449433616,0.06407970635899668,-2.780985256612122,3.4387632448600067,1.9541567203779824,0.4437541765868249,0.24257391091273392,True,4.28,2.116786489515367,100,0.02,0.101,0.161
13,1747143645.169093,0.2615553275524854,5.990213290134131,0,0.24662896990776062,5.908979415893555,-0.07419586181640625,-0.3843584656715393,0.3066524863243103,0.19714999198913574,0.01225743442773819,0.023541050031781197,-10.346063613891602,0.020529475295587775,0.07270718565475749,-2.782336550181005,3.373567136306952,2.089940908627976,0.5607697002289146,0.11102596267248128,True,4.28,2.2278124521878486,100,0.02,0.101,0.161
13,1747143647.1011097,-0.8455795490339945,6.704726066290929,1,-0.7649571299552917,6.525129318237305,0.943145751953125,-0.307417094707489,0.2743353545665741,0.17771367728710175,-0.04939289018511772,-0.014451784081757069,-10.228250503540039,0.00958557298611379,0.043986564362739504,-2.7883327038703705,3.1388703785750716,1.6335357888793212,0.482722098004222,0.20490820357056136,True,4.28,2.43272065575841,100,0.02,0.101,0.161
13,1747143649.1599772,-2.049999999999999,7.050704155516199,2,-1.8942089080810547,7.013805389404297,1.9695892333984375,-0.4666708707809448,0.12833014130592346,0.12292331457138062,-0.1408674418926239,-0.011263635009527206,-10.26298713684082,0.01881481633382966,0.04850045109710982,-2.7900258140953555,2.812256233412664,2.104332336590249,0.5032818215469755,0.16296379348546253,True,4.28,2.5956844492438726,100,0.02,0.101,0.161
13,1747143651.0708094,-3.2254282360512363,6.992760046192045,3,-3.132641315460205,6.971888542175293,2.9256439208984375,-0.42947134375572205,-0.07971915602684021,0.20131900906562805,-0.10986273735761642,-0.009972542524337769,-10.270586013793945,0.03659937347012097,0.025210557993545914,-2.7898017074240116,2.588737140426574,1.9726762217233005,0.45473996377747794,0.12072223826638348,True,4.28,2.716406687510256,100,0.02,0.101,0.161
13,1747143652.8998597,-4.234553679141369,6.539253573852523,4,-4.062846660614014,6.4953389167785645,3.9161911010742188,-0.35966670513153076,-0.15261198580265045,0.22430138289928436,-0.010283559560775757,-0.04545791819691658,-10.3483247756958,0.023262625865348458,-0.0011896508846834818,-2.789990549765615,2.99126500219067,2.401595373669025,0.5433605282965294,0.19605032225586558,True,4.28,2.9124570097661215,100,0.02,0.101,0.161
13,1747143654.7922497,-4.944154131125643,5.745211330880874,5,-4.790192127227783,5.816556453704834,4.934654235839844,-0.2938482463359833,-0.27751901745796204,0.19081787765026093,-0.14421142637729645,-0.08208564668893814,-10.304302215576172,0.015530873202245266,-0.005880119653849625,-2.788352866785157,3.3577606619777294,2.0307469612160176,0.4108311191780268,0.18183644873535465,True,4.28,3.0942934585014763,100,0.02,0.101,0.161
13,1747143656.6618772,-5.240803378993181,4.710075989266278,6,-5.199535369873047,4.821530342102051,5.924522399902344,-0.08753836154937744,-0.431622177362442,0.20098382234573364,-0.01116664707660675,0.011182624846696854,-10.281719207763672,0.011189907004495127,-0.026144427888559283,-2.7868908533073875,3.2726916540796185,2.46485618531097,0.4802875682479856,0.14079058725384397,True,4.28,3.23508404575532,100,0.02,0.101,0.161
13,1747143658.5094645,-5.045425660253547,3.570251060941675,7,-5.024147033691406,3.6554808616638184,6.914314270019531,0.12362027913331985,-0.43299493193626404,0.2213311791419983,-0.01964089646935463,-0.054611578583717346,-10.336457252502441,-0.015699834855511456,-0.045340355627246705,-2.787666820373898,3.1213974590224813,2.146534306701024,0.5626952664692548,0.12271488581990811,True,4.28,3.3577989315752284,100,0.02,0.101,0.161
13,1747143660.4034572,-4.325006043795975,2.4869808471515746,8,-4.2978901863098145,2.6064486503601074,7.931915283203125,0.24804309010505676,-0.37175774574279785,0.19186930358409882,-0.12475432455539703,-0.01838899403810501,-10.285832405090332,-0.038888970069545545,-0.04281986841329253,-2.792028797723501,2.913399893467033,2.129342927815223,0.5585107432972468,0.1401547515854998,True,4.28,3.4979536831607283,100,0.02,0.101,0.161
13,1747143662.4417608,-3.1000000000000028,1.630642496536482,9,-3.156574249267578,1.7194023132324219,8.96148681640625,0.41808807849884033,-0.30905985832214355,0.1578873097896576,-0.03776967152953148,0.05052974075078964,-10.284249305725098,-0.05483968192591822,-0.04442128066054143,-2.799152224825843,2.9011188363631892,1.7353727641598324,0.5631955763919207,0.1120812921526714,True,4.28,3.6100349753133996,100,0.02,0.101,0.161
13,1747143664.5495462,-1.4463860707160447,1.1629685708181468,10,-1.4849392175674438,1.18117094039917,9.971870422363281,0.5278059840202332,-0.10234972089529037,0.12909802794456482,0.07206456363201141,-0.05960501730442047,-10.259151458740234,-0.08551501740524368,-0.03646710919187534,-2.804971042101891,2.588518634300244,1.543781772744293,0.49210724453183724,0.05107782815008768,True,4.28,3.6611128034634874,100,0.02,0.101,0.161
13,1747143666.6744404,0.5081646363876857,1.2190141791679752,11,0.47411850094795227,1.307132601737976,10.971824645996094,0.5488351583480835,0.02274811640381813,0.1214073896408081,-0.05972012132406235,-0.0574314258992672,-10.206656455993652,-0.10454353357814329,-0.006731545756591175,-2.809567223164345,2.9833329783282276,2.059805947743925,0.5039193505656125,0.09857913728498215,True,4.28,3.7596919407484695,100,0.02,0.101,0.161
13,1747143668.902297,2.593921273001407,1.8907963846261513,12,2.5248401165008545,1.9300968647003174,11.985794067382812,0.5892971754074097,0.15598787367343903,0.09963352978229523,-0.05226569250226021,-0.03298516571521759,-10.176198959350586,-0.11369457085576913,0.008213554767758282,-2.81350767593442,3.261186540944236,1.7408352841920922,0.46426344120627283,0.080737490913688,True,4.28,3.8404294316621574,100,0.02,0.101,0.161
13,1747143671.1701171,4.613824533754626,3.2144470297365793,13,4.626713275909424,3.242344379425049,12.996482849121094,0.49790534377098083,0.35244154930114746,0.08633030205965042,-0.028381213545799255,-0.027305422350764275,-10.179640769958496,-0.12676874815993228,0.03713907936147464,-2.8132464992677018,3.1570876439422655,2.089518834691307,0.4638799933583374,0.030931410318292895,True,4.28,3.8713608419804504,100,0.02,0.101,0.161
13,1747143673.4812133,6.362038562233158,5.162435552910105,14,6.3310980796813965,5.218686103820801,13.999412536621094,0.3975597023963928,0.455737829208374,0.07866384834051132,-0.010320227593183517,0.019144367426633835,-10.201733589172363,-0.11545937536770608,0.06979029897967665,-2.809125591208363,2.8225094097830574,2.435644804828161,0.4967954320505617,0.0642011140986994,True,4.28,3.93556195607915,100,0.02,0.101,0.161
13,1747143675.9178846,7.6445824462891245,7.641958604712762,15,7.658524513244629,7.683199405670166,15.014923095703125,0.2658871114253998,0.5176370143890381,0.03596096858382225,-0.01093735359609127,0.03413352742791176,-10.169103622436523,-0.1066276081273597,0.08601140362238296,-2.8111310144992974,2.566568657583617,1.5014518701418966,0.4877524648507173,0.04602047022754747,True,4.28,3.9815824263066975,100,0.02,0.101,0.161
14,1747143786.1017587,0,10,-5,0.6282836198806763,9.36557388305664,-4.979835510253906,0.8065077662467957,-0.8191772699356079,0.05271608754992485,-0.03534465283155441,-0.04598100483417511,-10.621086120605469,-0.34627198417255806,-0.23920958538263126,3.0939791962536916,2.9212996536276092,2.4192117614689543,0.5337005427169906,0.8931088463994271,True,5.96,0.8931088463994271,50,0.0,0.192,0.066
14,1747143790.2542467,2,5,-5,1.8211030960083008,4.975837230682373,-5.016990661621094,0.25420552492141724,0.466170996427536,0.015379942953586578,0.023281075060367584,-0.017326928675174713,-9.835853576660156,-0.06067615739297215,0.03688648585787302,3.0071766641694837,3.045792659437368,1.5940658800300773,0.46034879097122755,0.18131912271251097,True,5.96,1.074427969111938,50,0.0,0.192,0.066
14,1747143797.8517914,4,10,-5,3.830275774002075,10.633383750915527,-5.013702392578125,0.4936661720275879,0.4672309458255768,0.024434929713606834,-0.03487812727689743,0.0005795024335384369,-9.937909126281738,-0.06605627118958882,0.17868034178108186,3.1391256722031113,2.918201489904874,2.124721983371574,0.5417038731641473,0.6558727348935787,True,5.96,1.7303007040055167,50,0.0,0.192,0.066
14,1747143800.4351842,6,5,-5,6.191675186157227,3.71152400970459,-4.893867492675781,0.2802647650241852,-1.6044741868972778,-0.18696042895317078,-0.010821657255291939,-0.13082988560199738,-10.724996566772461,-0.11422280886635769,-0.39439715670998254,3.1155589508984547,2.7841648208020278,2.0969035861055194,0.4992140452446551,1.3069712558687243,True,5.96,3.037271959874241,50,0.0,0.192,0.066
14,1747143803.0863028,8,10,-5,8.65206241607666,12.044663429260254,-4.758148193359375,-0.023678625002503395,2.015361785888672,-0.21233394742012024,-0.10731609165668488,-0.057784613221883774,-11.591130256652832,-0.13057287862518124,0.5619283954998601,3.1091855318497585,2.883815122869285,2.3944760729746277,0.5410140254067661,2.1597051256570574,False,5.96,5.196977085531298,50,0.0,0.192,0.066
14,1747143808.4674795,10,5,-5,9.799235343933105,6.235914707183838,-4.891868591308594,-0.2431933581829071,1.6575098037719727,-0.11068985611200333,0.005605630576610565,-0.0014570897910743952,-10.77628231048584,0.03692886643773006,0.4035597665549174,-3.140199811271857,3.2443732264711485,1.9739819019440978,0.5503998073952225,1.2567752432732586,True,5.96,6.453752328804557,50,0.0,0.192,0.066
14,1747143817.961742,12,10,-5,12.296799659729004,9.801681518554688,-5.0062255859375,-0.4510284960269928,-0.20957675576210022,-0.0065287258476018906,0.004139557480812073,0.042755626142024994,-9.75064754486084,-0.016090097082157844,-0.041022263551828766,-3.0959669549250903,3.1881707963665464,1.5268553543003702,0.47497747829364106,0.3570140277612246,True,5.96,6.810766356565781,50,0.0,0.192,0.066
14,1747143820.5901346,14,5,-5,14.163186073303223,3.9651432037353516,-4.960029602050781,0.7713121771812439,-0.9009837508201599,-0.03677402064204216,-0.06158063933253288,0.03930308669805527,-10.308009147644043,-0.1471638206110283,-0.2848962307654328,-3.128252895921034,3.155611597780276,1.9185343982650203,0.4283067392683445,1.0484063696904344,True,5.96,7.859172726256216,50,0.0,0.192,0.066
14,1747143823.0929327,16,10,-5,16.29897689819336,11.768585205078125,-4.799644470214844,0.0039138188585639,1.8768117427825928,-0.17376552522182465,-0.11557360738515854,0.0741976648569107,-11.179056167602539,-0.10108026429919138,0.5138150485042438,-3.119441892675525,3.0706039391728686,2.3585914790016798,0.5025718226616837,1.8048332752888967,False,5.96,9.664006001545113,50,0.0,0.192,0.066
14,1747143825.90881,18,5,-5,18.31475830078125,2.8262112140655518,-4.743988037109375,0.42995211482048035,-2.100262403488159,-0.48453083634376526,-0.03958345577120781,-0.058585263788700104,-11.370020866394043,-0.12195481893855632,-0.549726633242442,-3.109462875774701,3.380455581677092,2.403446483965943,0.42172764308525235,2.211328243139895,False,5.96,11.875334244685007,50,0.0,0.192,0.066
14,1747143831.2694244,20,10,-5,20.01926612854004,8.56333065032959,-4.835906982421875,-0.26800623536109924,-1.6753062009811401,-0.2633005976676941,-0.004227019846439362,-0.058966122567653656,-10.814408302307129,0.005674517867024988,-0.3828467223325443,-3.13970676193226,2.6666081848119685,1.750624915771195,0.5595203720911107,1.4461384865942872,True,5.96,13.321472731279295,50,0.0,0.192,0.066
14,1747143838.6088412,22,5,-5,21.946413040161133,4.498162746429443,-5.020332336425781,0.4379361569881439,0.07718870788812637,0.009248139336705208,-0.06404801458120346,-0.002341877669095993,-9.850783348083496,-0.06872567078929084,-0.055493856570429476,3.1086557722042705,3.001575271862378,2.372404550074849,0.46881004818947586,0.5050995894282064,True,5.96,13.826572320707502,50,0.0,0.192,0.066
14,1747143841.084779,24,10,-5,24.41847038269043,11.120895385742188,-4.928535461425781,0.2454049438238144,1.517529010772705,-0.033125948160886765,-0.03336799889802933,0.039528120309114456,-10.60195255279541,-0.1309425435020631,0.4005184760390429,3.135443057888758,3.4792065441829143,2.276725526137329,0.4978748095651956,1.1985954727266526,True,5.96,15.025167793434154,50,0.0,0.192,0.066
14,1747143843.7113304,26,5,-5,26.37716293334961,3.124630928039551,-4.75640869140625,0.1472775936126709,-1.999261498451233,-0.3447934091091156,-0.08922064304351807,-0.1381445825099945,-11.233393669128418,-0.12451611197484672,-0.5031206511989084,3.135090201612007,3.49734599050269,1.681781725555609,0.5649453750738531,1.928366604144838,False,5.96,16.95353439757899,50,0.0,0.192,0.066
14,1747143849.0452693,28,10,-5,27.83428192138672,8.630398750305176,-4.845703125,-0.26257264614105225,-1.6336532831192017,-0.26512178778648376,-0.04910837113857269,-0.07269544154405594,-10.745267868041992,0.021054976137602127,-0.37426257870338014,3.110668978782368,2.5466460434731917,2.0109946203415925,0.5353815033464591,1.3881922022471052,True,5.96,18.341726599826096,50,0.0,0.192,0.066
14,1747143858.4873266,30,5,-5,30.330318450927734,5.128891468048096,-5.015815734863281,-0.4241161048412323,0.2199384719133377,0.017316769808530807,-0.0478665716946125,-0.016082763671875,-9.805082321166992,-0.023315491622605836,0.06963367669973292,3.0668948252994626,3.074030344266978,2.24067260429404,0.5926928878668327,0.35492735457859115,True,5.96,18.696653954404688,50,0.0,0.192,0.066
14,1747143861.0503838,32,10,-5,32.130279541015625,11.05634593963623,-4.970268249511719,0.7674933671951294,1.0114747285842896,-0.007879920303821564,-0.039073459804058075,-0.048545122146606445,-10.284175872802734,-0.12781451563664997,0.33780208916258647,3.0933192550035296,2.5573746910339485,1.9056630617836254,0.4170340335417716,1.064764518558113,True,5.96,19.761418472962802,50,0.0,0.192,0.066
14,1747143863.6414125,34,5,-5,34.31320571899414,3.2549240589141846,-4.808052062988281,-0.03810534626245499,-1.8361339569091797,-0.34633728861808777,0.003337893635034561,-0.07801496237516403,-10.847779273986816,-0.1128659450561681,-0.46660066692925667,3.0861495458316024,2.5819008176029143,2.454245974384383,0.5379557520818465,1.7833204628137467,False,5.96,21.54473893577655,50,0.0,0.192,0.066
14,1747143866.396322,36,10,-5,36.27436447143555,12.129314422607422,-4.759124755859375,0.4945662021636963,2.100335121154785,-0.23855982720851898,-0.08781811594963074,0.024951834231615067,-11.777017593383789,-0.09819654726633843,0.5911388095527836,3.072367029335082,2.956708856068885,2.017194964551188,0.5683855110935502,2.160388080125858,False,5.96,23.70512701590241,50,0.0,0.192,0.066
14,1747143871.8578675,38,5,-5,38.0080680847168,6.414604187011719,-4.892051696777344,-0.3169925808906555,1.5297590494155884,-0.09677775949239731,-0.08321405947208405,-0.0027182577177882195,-10.722979545593262,0.040047507843960974,0.41961160947328874,3.0739501237121534,2.5208759907629013,2.1901842238451,0.5659850050698494,1.418739911354697,True,5.96,25.123866927257104,50,0.0,0.192,0.066
14,1747143873.3615232,40,10,-5,37.66996383666992,7.858039379119873,-4.586067199707031,0.010884517803788185,-0.08886700123548508,0.5751994848251343,-0.004889467731118202,0.024341288954019547,-9.471488952636719,0.0007748459874304393,0.004849710271320524,3.058102414739285,2.519196485053204,2.1011088531179305,0.43620797868789574,3.191927973339234,False,5.96,28.315794900596337,50,0.0,0.192,0.066
15,1747143901.0822666,0,3,-11,-1.3279058933258057,3.0118749141693115,-11.287353515625,-1.7574981451034546,0.14651907980442047,-0.4269281327724457,0.09006679058074951,0.052627790719270706,-8.55953311920166,-0.4230806132716388,-0.09648483657999897,0.1871507187598649,2.8386570261993107,1.9294594432820522,0.47264187183277157,1.3586931655300183,True,3.62,1.3586931655300183,100,0.1,0.141,0.19
15,1747143903.7088108,2,3,-10,2.906825304031372,2.9027516841888428,-9.62384033203125,1.1695507764816284,-0.009458567015826702,-0.12952208518981934,-0.017164338380098343,0.024352705106139183,-11.2343111038208,0.32418557562816747,0.08249102198133723,0.18103515028789982,3.462176363865224,2.0704453380359125,0.5312076199826076,0.9865523112162159,True,3.62,2.3452454767462343,100,0.1,0.141,0.19
15,1747143904.6554523,4,3,-9,4.303699493408203,2.9526944160461426,-9.249404907226562,0.21996675431728363,0.06963910907506943,0.3077485263347626,0.09840577840805054,0.050771865993738174,-10.091217994689941,0.14142473085344226,0.03174822949494767,0.16662138077519245,3.258366004545635,1.5906816239630523,0.4876506202542415,0.3958206769716621,True,3.62,2.741066153717896,100,0.1,0.141,0.19
15,1747143908.0583522,6,3,-8,5.8155364990234375,2.972869396209717,-7.9901275634765625,0.4381354749202728,-0.08446532487869263,-0.0940241664648056,0.07370492070913315,-0.003271806985139847,-9.756583213806152,0.05496598082144955,0.0331118537520611,0.161419472479299,3.072357093673896,2.2580374929037843,0.5746244084468708,0.18670917989607502,True,3.62,2.927775333613971,100,0.1,0.141,0.19
15,1747143910.455623,8,3,-7,7.982243537902832,3.0106568336486816,-7.008880615234375,0.5042944550514221,0.036594729870557785,0.10352183878421783,0.01835430972278118,-0.0063768960535526276,-10.155159950256348,0.08894957761211797,0.01739988966646689,0.1606067541424935,2.546352564624279,2.1916072334234196,0.4597727736346082,0.022532762293266426,True,3.62,2.9503080959072374,100,0.1,0.141,0.19
15,1747143912.7707105,10,3,-6,9.884570121765137,3.0446131229400635,-5.9946136474609375,0.47816088795661926,-0.07983972132205963,0.07175455242395401,-0.023599155247211456,0.0416543111205101,-10.11739444732666,0.06827115141991483,0.02185414933129661,0.15734020588085174,2.7888652833219933,1.7340437691788742,0.5825673869161825,0.12386847993519436,True,3.62,3.074176575842432,100,0.1,0.141,0.19
15,1747143915.1037061,12,3,-5,11.94233512878418,2.962064743041992,-5.002815246582031,0.5284749269485474,0.019802303984761238,0.07481202483177185,0.1005556583404541,0.0646824836730957,-10.158526420593262,0.08267305932825776,0.025428597611660417,0.15661289336337011,2.674949528359833,2.2190277700292915,0.5328024834371252,0.06908144979750253,True,3.62,3.1432580256399345,100,0.1,0.141,0.19
15,1747143917.3738835,14,3,-4,13.925819396972656,3.0389487743377686,-4.007728576660156,0.4975993037223816,-0.022865595296025276,0.08723881840705872,0.06887228786945343,0.04295652359724045,-10.192493438720703,0.07786826720872571,0.017170762557301628,0.15457735569305558,2.906831219454298,2.104749088631057,0.435766551256446,0.0841397634005866,True,3.62,3.227397789040521,100,0.1,0.141,0.19
