mission_id,time,target_x,target_y,target_z,real_x,real_y,real_z,vx,vy,vz,ax,ay,az,roll,pitch,yaw,wind_x,wind_y,wind_z,erreur_m,erreur_ok,velocity,erreur_cumulee_m,battery_level,rain,fog,snow
1,1747220386.9035692,0,-3,-5,0.4176672399044037,0.4406307637691498,-2.5844573974609375,0.05555766448378563,-0.017348909750580788,0.30297496914863586,-0.01390121877193451,-0.021663762629032135,-9.60500431060791,0.0012796393340767454,-0.012621315017271664,-2.6304086042201478,2.8720040656104655,1.9389332828949386,0.5217556449849433,4.224598447256879,False,4.06,4.224598447256879,100,0.16,0.066,0.083
1,1747220387.4096036,2,-1.336116777718809,-5,0.4573134481906891,0.4086851477622986,-2.4649124145507812,0.08612430840730667,0.03453876078128815,0.3027355968952179,-0.10956078767776489,-0.03914639726281166,-9.946142196655273,0.00225768188867111,0.002824680630719001,-2.6602043676836042,3.193188000826657,1.8350955664752886,0.40632396575808677,3.4425113830159852,False,4.06,7.667109830272864,100,0.16,0.066,0.083
1,1747220387.9136772,4,-3,-5,0.5390477180480957,0.4030701220035553,-2.3280487060546875,0.08621735125780106,0.06573352217674255,0.20131158828735352,-0.01675388589501381,0.024976594373583794,-10.045475006103516,-0.0134587619460773,-0.004229607643007561,-2.682496349991403,3.17063972580391,1.6672542733298061,0.49608554793006837,5.540613744923699,False,4.06,13.207723575196564,100,0.16,0.066,0.083
1,1747220388.4173112,6,-1.336116777718809,-5,0.6129994988441467,0.4324590265750885,-2.2313385009765625,0.02528749220073223,0.10032300651073456,0.0890112817287445,-0.011964652687311172,0.015296665951609612,-10.062432289123535,-0.02319697734482916,-0.004365138166184522,-2.6691771811218175,2.7350956454056043,2.2352219571869334,0.5064177282120774,6.309763963189267,False,4.06,19.51748753838583,100,0.16,0.066,0.083
1,1747220388.921025,8,-3,-5,0.65934157371521,0.49574145674705505,-2.1779251098632812,-0.04005395248532295,0.1230199784040451,0.0037407134659588337,-0.1335354745388031,-0.04350142180919647,-10.042142868041992,-0.03155071167249034,0.005398237338672903,-2.6504432634069106,3.43164859225735,2.294740594437968,0.5028900976164157,8.606368638940937,False,4.06,28.123856177326765,100,0.16,0.066,0.083
1,1747220390.4241037,10,-1.336116777718809,-5,0.5447566509246826,0.6543416976928711,-2.1861801147460938,-0.14694057404994965,-0.04596434161067009,-0.056066397577524185,-0.1279849112033844,0.018138805404305458,-9.800257682800293,-0.007499982519869938,0.02839393002339487,-2.6389392455634617,2.7703631433806053,1.7106408582279862,0.43112720731737636,10.063852844672438,False,4.06,38.187709021999204,100,0.16,0.066,0.083
1,1747220390.9290524,12,-3,-5,0.47756248712539673,0.6407349109649658,-2.203094482421875,-0.10808032751083374,-0.08811931312084198,-0.03548845276236534,-0.010967787355184555,0.06630837917327881,-9.763947486877441,0.0021890520432300375,0.024436123547507085,-2.629096936870784,2.780372968420232,1.5549900217813155,0.5207039822257831,12.403394591976742,False,4.06,50.591103613975946,100,0.16,0.066,0.083
1,1747220391.4329743,14,-1.336116777718809,-5,0.43568477034568787,0.6045476794242859,-2.2158050537109375,-0.04063403233885765,-0.09581472724676132,-0.01882845163345337,-0.12068485468626022,-0.09053575992584229,-9.705743789672852,0.0038907025532302414,0.017916806740365585,-2.6251180478010276,3.0209560737292964,2.359654356230286,0.5592300962476394,13.982437830492648,False,4.06,64.57354144446859,100,0.16,0.066,0.083
1,1747220391.9388876,16,-3,-5,0.426813542842865,0.5602524280548096,-2.2241439819335938,0.009477215819060802,-0.08280673623085022,-0.006956828758120537,-0.11429696530103683,-0.036180999130010605,-9.797475814819336,0.0026832232442774305,0.010731373570369568,-2.6288537260771547,2.8249117310644127,2.2298266069420447,0.4179191316430806,16.214342737647062,False,4.06,80.78788418211565,100,0.16,0.066,0.083
1,1747220392.443321,18,-1.336116777718809,-5,0.44089698791503906,0.5256080627441406,-2.2260284423828125,0.030726738274097443,-0.05350317433476448,0.006288190837949514,-0.13662290573120117,0.050218407064676285,-9.830194473266602,-0.0007328321039989157,0.006081845105336697,-2.6311847243806437,2.7196742142559156,1.8653113514182116,0.5154570038328014,17.874088401176635,False,4.06,98.66197258329228,100,0.16,0.066,0.083
1,1747220392.9468787,20,-3,-5,0.4663427174091339,0.5061361789703369,-2.2233123779296875,0.02921013906598091,-0.021488361060619354,0.012158517725765705,-0.04395374655723572,-0.04896809533238411,-9.848257064819336,-0.004745226891673087,0.004286815062622934,-2.6316281374322776,2.695430929061546,1.6444361282937716,0.5903581083975133,20.03913051730934,False,4.06,118.70110310060161,100,0.16,0.066,0.083
1,1747220393.4502733,22,-1.336116777718809,-5,0.4933664798736572,0.5046186447143555,-2.2209548950195312,0.02006218396127224,0.010028556920588017,0.01003318466246128,-0.12938590347766876,-0.0012307522119954228,-9.848349571228027,-0.009906040063364704,0.005348992990010705,-2.630741907460304,3.0669569032573643,2.460819243410735,0.5645678816534909,21.76342537285751,False,4.06,140.46452847345913,100,0.16,0.066,0.083
1,1747220393.953709,24,-3,-5,0.5062270760536194,0.5128494501113892,-2.2170867919921875,-0.005445352289825678,0.01937704347074032,0.00890541635453701,-0.07856526970863342,-0.012299934402108192,-9.8182954788208,-0.010597964132251414,0.00820263903259197,-2.6289801360212066,3.2273633635969188,1.788221192408399,0.5998466312664066,23.91740126737034,False,4.06,164.38192974082946,100,0.16,0.066,0.083
1,1747220394.457203,26,-1.336116777718809,-5,0.5058953762054443,0.5263838768005371,-2.21429443359375,-0.02264389581978321,0.020855823531746864,0.0022300230339169502,-0.0971614271402359,0.028814541175961494,-9.877090454101562,-0.010084148560810146,0.011644340408119097,-2.628259945977726,2.9379404825220283,2.4933882089436152,0.4713157268251877,25.71339018410009,False,4.06,190.09531992492956,100,0.16,0.066,0.083
1,1747220394.9624512,28,-3,-5,0.4948124885559082,0.5385767817497253,-2.2133941650390625,-0.031987596303224564,0.010255793109536171,-0.00048398246872238815,-0.0603412389755249,-0.0008160658180713654,-9.836915969848633,-0.007823803289084852,0.014071536226864752,-2.62822898175983,3.2876477490057927,1.6588856306321258,0.5061159834394087,27.871527366821443,False,4.06,217.966847291751,100,0.16,0.066,0.083
1,1747220395.4669175,30,-1.336116777718809,-5,0.4773707687854767,0.5447653532028198,-2.2137222290039062,-0.028278974816203117,0.00019631118630059063,-0.004185285419225693,-0.12472037971019745,0.04366367310285568,-9.781244277954102,-0.005578742618983865,0.015441608605907677,-2.627855127200881,2.9609715379789634,2.261789080708903,0.41363304372323717,29.71340939931548,False,4.06,247.6802566910665,100,0.16,0.066,0.083
1,1747220395.9715664,32,-3,-5,0.4589383006095886,0.541257917881012,-2.2142105102539062,-0.021803347393870354,-0.015037435106933117,-0.004948750138282776,-0.0018848180770874023,0.039656102657318115,-9.783499717712402,-0.001827764693919806,0.013674016798884454,-2.627452082292082,2.663304694835111,1.696985504287146,0.4035124961489407,31.86125709771803,False,4.06,279.5415137887845,100,0.16,0.066,0.083
1,1747220396.4754148,34,-1.336116777718809,-5,0.4428132474422455,0.5351670980453491,-2.2148208618164062,-0.006974241696298122,-0.015020140446722507,-0.004994184244424105,-0.11183305084705353,-0.02312411554157734,-9.850021362304688,-0.0006799468485396244,0.01365440622439003,-2.627855427455886,3.1131174962522605,1.621020729449754,0.44255801779077875,33.72452681538328,False,4.06,313.2660406041678,100,0.16,0.066,0.083
1,1747220396.9811409,36,-3,-5,0.4350665807723999,0.5272417068481445,-2.2176895141601562,0.01769336126744747,-0.007565257139503956,-0.0010283474111929536,-0.12430285662412643,0.014109889045357704,-9.75498104095459,-0.0024039095460923862,0.012441310780527258,-2.628180537970639,3.2577564609220637,2.366183737949248,0.49404861647818643,35.84755465596274,False,4.06,349.1135952601305,100,0.16,0.066,0.083
1,1747220397.4867997,38,-1.336116777718809,-5,0.43471086025238037,0.5205429792404175,-2.2181777954101562,0.01887858472764492,-0.006693365518003702,0.0033357730135321617,0.009499333798885345,-0.016445763409137726,-9.801478385925293,-0.001554294465882294,0.011269410491317002,-2.6276371953507764,2.66125921287677,1.8097164182939651,0.49195931301930523,37.7138789888272,False,4.06,386.82747424895774,100,0.16,0.066,0.083
1,1747220397.9910004,40,-3,-5,0.4394078552722931,0.5164538025856018,-2.218231201171875,0.025349289178848267,0.0009221725049428642,0.005536590702831745,-0.07039031386375427,-0.0027755775954574347,-9.770285606384277,-0.003199765221207644,0.010702996991938765,-2.6270266809008818,3.185339265599185,1.8253715247659545,0.5021842225776093,39.813868636912744,False,4.06,426.6413428858705,100,0.16,0.066,0.083
2,1747220399.6458547,2.0,0.0,-5.0,0.4693610966205597,0.5166828632354736,-2.2213287353515625,0.014151107519865036,0.011808043345808983,0.006688080262392759,-0.010644972324371338,0.07137265801429749,-9.770621299743652,-0.007049404834364139,0.010284355285457859,-2.6276116826638383,3.428802181914845,1.589200443448024,0.5176997402313259,3.2141609528277777,False,6.03,3.2141609528277777,50,0.04,0.053,0.165
2,1747220400.1508274,2.197817453308123,0.7779369011450796,-4.5,0.47330668568611145,0.516626238822937,-2.220428466796875,-0.001895555411465466,0.005473857745528221,0.00960424356162548,-0.08282019197940826,0.02282870002090931,-9.75098705291748,-0.004896159548439832,0.010059029554431609,-2.6270905032844167,2.5036292381265515,1.7949708190555653,0.5987501762918428,2.870307827546994,False,6.03,6.084468780374772,50,0.04,0.053,0.165
2,1747220400.6562672,2.1482208132215868,1.6646321509654174,-4.0,0.47424429655075073,0.5183696746826172,-2.2205657958984375,-0.00023795913148205727,0.009889421984553337,0.007115609012544155,-0.11014649271965027,-0.015459204092621803,-9.84351921081543,-0.006179515718543298,0.011268963598683169,-2.6267319881283413,3.202832046558898,1.9610438011069546,0.5375617927993657,2.6986109630004034,False,6.03,8.783079743375175,50,0.04,0.053,0.165
2,1747220401.1602657,1.8081204253903274,2.5673112991572866,-3.5,0.47482728958129883,0.5199295282363892,-2.220245361328125,-0.0006663204403594136,0.010811809450387955,0.006656256038695574,-0.09926269948482513,0.004585582762956619,-9.882515907287598,-0.006354166764683224,0.010885053346573992,-2.6267665484040585,2.967217821245913,2.2512357165733197,0.5618494207956061,2.7581179519913293,False,6.03,11.541197695366504,50,0.04,0.053,0.165
2,1747220401.664096,1.169091277972464,3.3787959956614535,-3.0,0.4708960950374603,0.5211691856384277,-2.2208480834960938,-0.0023036575876176357,0.008468701504170895,0.0029371597338467836,-0.1313001811504364,-0.047008998692035675,-9.808177947998047,-0.005640397883462264,0.011148630236635142,-2.6271479501371844,3.360674810051637,1.8638422296168167,0.4580875830975812,3.0431209650337148,False,6.03,14.58431866040022,50,0.04,0.053,0.165
2,1747220402.1672962,0.2615553275524854,3.9902132901341303,-2.5,0.4635072350502014,0.5225184559822083,-2.2194442749023438,-0.0010470752604305744,0.005587646272033453,0.006094763986766338,-0.1476607620716095,0.040698882192373276,-9.850605964660645,-0.0048366599119800185,0.011571323570568757,-2.6274023685161794,3.2835141983330756,2.056682634109851,0.5585604714783655,3.4848821430044032,False,6.03,18.069200803404623,50,0.04,0.053,0.165
2,1747220402.6716588,-0.8455795490339945,4.30472606629093,-2.0,0.4559347629547119,0.5271612405776978,-2.21771240234375,0.00518285296857357,0.009882539510726929,0.004430718719959259,-0.1290511041879654,0.06120481714606285,-9.822149276733398,-0.0050155519924243025,0.012931650426962564,-2.627375079733489,3.4383577918173005,2.182264285319671,0.5187607978387377,4.001416525046045,False,6.03,22.070617328450666,50,0.04,0.053,0.165
2,1747220403.176373,-2.049999999999999,4.250704155516198,-1.5,0.4525843858718872,0.534395158290863,-2.2157821655273438,0.013510243035852909,0.009286281652748585,0.006209001876413822,-0.12198081612586975,0.004529124591499567,-9.863114356994629,-0.006085456350912059,0.013892796785720953,-2.627180889855216,3.4422337550051187,2.2254071403405287,0.5986145688937272,4.537204566663791,False,6.03,26.607821895114455,50,0.04,0.053,0.165
2,1747220403.6804063,-3.2254282360512363,3.792760046192045,-1.0,0.4537402391433716,0.5402985215187073,-2.2141189575195312,0.018107259646058083,0.00357877928763628,0.0004323054163251072,-0.13081642985343933,0.01122668944299221,-9.844761848449707,-0.007200945254726193,0.013649969721850326,-2.6272088404262224,3.4589363130038424,2.249528839835536,0.5284280426100314,5.058544403418294,False,6.03,31.66636629853275,50,0.04,0.053,0.165
2,1747220404.1866484,-4.234553679141369,2.939253573852523,-0.5,0.45646244287490845,0.5423557162284851,-2.21533203125,0.01778545044362545,-0.005696818232536316,-0.00483310129493475,-0.11199983954429626,-0.028973501175642014,-9.831847190856934,-0.006930501443395336,0.012743197948020094,-2.6273171921452665,3.361797430813883,2.0967831884513104,0.47214300119822517,5.540136782998375,False,6.03,37.206503081531125,50,0.04,0.053,0.165
2,1747220404.6921256,-4.944154131125643,1.7452113308808737,0.0,0.46007633209228516,0.5423513054847717,-2.2143325805664062,0.009260820224881172,-0.012422814033925533,-0.0027265395037829876,-0.1030493676662445,0.02789468877017498,-9.867115020751953,-0.005565399452202265,0.012343854275176184,-2.6271797091421174,2.825574027141001,1.7821150775713752,0.5399295753567641,5.962872455253965,False,6.03,43.16937553678509,50,0.04,0.053,0.165
2,1747220405.1999693,-5.240803378993181,0.3100759892662778,0.5,0.4645221531391144,0.5382214188575745,-2.2128372192382812,0.002136574825271964,-0.016464203596115112,-0.0013741559814661741,-0.08262133598327637,0.05792208015918732,-9.785553932189941,-0.004751662583676429,0.011571734222417461,-2.6268520682504684,2.603894231276901,1.63048384382802,0.4720855406677438,6.32157223661397,False,6.03,49.49094777339906,50,0.04,0.053,0.165
2,1747220405.7039263,-5.045425660253547,-1.2297489390583247,1.0,0.4684635102748871,0.5297752618789673,-2.2105484008789062,0.004448170308023691,-0.011386009864509106,-0.001398586668074131,-0.10803291201591492,0.006887634750455618,-9.792933464050293,-0.005689699878861825,0.010376845809852684,-2.6268480830065193,3.1254619568015505,2.0990547458871283,0.5630558629168926,6.618649426653512,False,6.03,56.10959720005257,50,0.04,0.053,0.165
2,1747220406.2079737,-4.325006043795975,-2.7130191528484255,1.5,0.47052523493766785,0.5172877311706543,-2.2092132568359375,-0.000649859313853085,-0.010739344172179699,-0.0033422138076275587,-0.14962610602378845,0.003803648054599762,-9.796670913696289,-0.0041373868970772925,0.008612223074207304,-2.626952955975667,3.2314554783652873,1.5707196944892794,0.5364101123281451,6.869517144235194,False,6.03,62.979114344287765,50,0.04,0.053,0.165
2,1747220406.712537,-3.1000000000000028,-3.9693575034635176,2.0,0.47184890508651733,0.5081730484962463,-2.2086334228515625,-0.0009427961776964366,-7.391966937575489e-05,-0.004665792919695377,-0.10241768509149551,-0.05717788636684418,-9.81152057647705,-0.0040600197279910275,0.008315488302621276,-2.6271784461253156,3.13267671573184,1.9224114900902034,0.5690377346872959,7.107670485640435,False,6.03,70.0867848299282,50,0.04,0.053,0.165
2,1747220407.2166193,-1.4463860707160447,-4.837031429181853,2.5,0.4728713035583496,0.5056477785110474,-2.2082595825195312,-0.0034982089418917894,0.012174153700470924,-0.005985501687973738,-0.20371457934379578,0.02884954772889614,-9.798827171325684,-0.00444226529895529,0.009496251437528996,-2.627153161901611,2.544020074965636,2.4470232597711767,0.5410472589155984,7.375329028687986,False,6.03,77.46211385861619,50,0.04,0.053,0.165
2,1747220407.7202961,0.5081646363876857,-5.180985820832024,3.0,0.47265201807022095,0.5072253942489624,-2.2095184326171875,-0.0025213812477886677,0.017604488879442215,-0.00860349927097559,-0.05346698686480522,-0.05830074101686478,-9.80887508392334,-0.005113065142621334,0.010127684600219594,-2.626925592994444,3.256195066957938,1.7392557283926318,0.49023095595460997,7.7133708761611555,False,6.03,85.17548473477734,50,0.04,0.053,0.165
2,1747220408.2238889,2.593921273001407,-4.9092036153738485,3.5,0.46675968170166016,0.5121722221374512,-2.2121505737304688,-0.0057678925804793835,0.01970583014190197,-0.009367907419800758,-0.19063585996627808,0.07083551585674286,-9.848030090332031,-0.0042593395270383505,0.011972719819153928,-2.6267151320836626,2.57501715391468,2.498205058293833,0.4339046307796192,8.157499407540373,False,6.03,93.33298414231771,50,0.04,0.053,0.165
2,1747220408.7281842,4.613824533754626,-3.985552970263421,4.0,0.46002325415611267,0.5211499929428101,-2.2159423828125,0.0022003124468028545,0.020715415477752686,-0.003949059173464775,-0.11076720058917999,-0.014485583640635014,-9.882904052734375,-0.005405315184365691,0.013325550916678554,-2.626940174881622,3.495596790153319,2.045341235892946,0.4545608012920348,8.729397251552411,False,6.03,102.06238139387013,50,0.04,0.053,0.165
2,1747220409.233217,6.362038562233158,-2.437564447089895,4.5,0.4521521329879761,0.5297489166259766,-2.2161331176757812,-0.0005224295891821384,0.009715895168483257,0.003578823758289218,-0.1115044355392456,-0.020675642415881157,-9.800785064697266,-0.0034877252307478285,0.01438356085799271,-2.6272538833536117,2.5838007106137906,2.014186506660984,0.5585062614429117,9.425399209550998,False,6.03,111.48778060342113,50,0.04,0.053,0.165
2,1747220409.7371647,7.6445824462891245,-0.35804139528723766,5.0,0.44914236664772034,0.5357066988945007,-2.2164993286132812,0.009612251073122025,0.0014994748635217547,-7.427300442941487e-05,-0.05501152575016022,-0.007726031355559826,-9.879539489746094,-0.004068131955469877,0.013694789603110125,-2.6274975396941245,3.320583823456011,1.5246010079250747,0.4629303631616084,10.22990743630847,False,6.03,121.7176880397296,50,0.04,0.053,0.165
3,1747220438.0368207,0,5,-4,0.3850623369216919,4.45143985748291,-3.8740310668945312,-0.03629380092024803,-0.9233701229095459,-0.08202621340751648,-0.09346239268779755,-0.03197072446346283,-10.19796085357666,0.08315267818103621,-0.17102184216632177,-2.39977111259772,2.959140238187605,2.24831495619281,0.5715538101355363,0.6819526415974166,True,8.73,0.6819526415974166,100,0.07,0.01,0.189
3,1747220440.5599566,2,5,-3.9,2.462639331817627,5.180106163024902,-3.877197265625,0.3539895713329315,0.7864207625389099,-0.010494545102119446,-0.01761372946202755,-0.0021400395780801773,-9.954459190368652,-0.1888180387952005,0.02369091368393474,-2.40993370641657,3.026082606284347,2.2002156234831998,0.476887199873469,0.4969842512587193,True,8.73,1.178936892856136,100,0.07,0.01,0.189
3,1747220443.2053585,4,5,-3.8,3.969398021697998,4.970165729522705,-3.7933807373046875,0.24820642173290253,-0.628771185874939,-0.012088573537766933,-0.07567530125379562,-0.047045014798641205,-9.89133071899414,0.014131895597546733,-0.06833957851411486,-2.4332556211935095,2.6687448150027944,2.1548162243305073,0.5087678290896018,0.0432478832954648,True,8.73,1.2221847761516007,100,0.07,0.01,0.189
3,1747220445.6832302,6,5,-3.6999999999999997,6.320701599121094,4.855854034423828,-3.6912460327148438,0.46784400939941406,0.48935291171073914,0.02027120254933834,-0.003067273646593094,0.01905951462686062,-9.919998168945312,-0.12868894168370215,-0.03845802880094165,-2.4392198355262003,3.0684111420240177,1.886352404338549,0.5732020543061558,0.3517160886481357,True,8.73,1.5739008647997363,100,0.07,0.01,0.189
3,1747220447.9757507,8,5,-3.5999999999999996,8.002811431884766,5.284792423248291,-3.59234619140625,0.34931397438049316,-0.35505878925323486,0.007349133491516113,-0.114723801612854,-0.04219599813222885,-9.859443664550781,-0.06225168365471042,-0.018567911494675047,-2.4562874758134576,3.1759388953714343,2.424954668703675,0.5377673791945705,0.28490912459039663,True,8.73,1.8588099893901329,100,0.07,0.01,0.189
3,1747220450.3288772,10,5,-3.4999999999999996,10.087020874023438,4.723376274108887,-3.5010910034179688,0.5585729479789734,0.20355664193630219,0.014304103329777718,-0.07548364996910095,0.05737581104040146,-9.924308776855469,-0.07532170482424559,-0.06530890376586819,-2.4601176219072562,2.9067514699141532,1.9234645879983152,0.48674980674954527,0.28999053179395834,True,8.73,2.148800521184091,100,0.07,0.01,0.189
3,1747220452.3696115,12,5,-3.3999999999999995,11.923396110534668,5.190463066101074,-3.3998031616210938,0.5768627524375916,-0.008062605746090412,0.027833670377731323,-0.08107858896255493,-0.0051375143229961395,-9.89959716796875,-0.09210270460435274,-0.007409486964676255,-2.4656706742323675,2.7688715833337154,1.8944704278383988,0.54538743965539,0.20529095005670947,True,8.73,2.3540914712408005,100,0.07,0.01,0.189
3,1747220454.4732018,14,5,-3.2999999999999994,13.969520568847656,4.94677209854126,-3.2985916137695312,0.6329504251480103,-0.09094855189323425,0.02036808431148529,-0.17673438787460327,-0.027559885755181313,-9.940581321716309,-0.07421798836901335,-0.058751158512661654,-2.4683577559574608,3.142362211793551,2.014092251962496,0.526435821418727,0.06135298500355134,True,8.73,2.415444456244352,100,0.07,0.01,0.189
3,1747220456.571951,16,5,-3.1999999999999993,15.951855659484863,4.942882537841797,-3.2009811401367188,0.5787202715873718,0.10902184993028641,0.02001091279089451,-0.12462055683135986,-0.09104450047016144,-9.866771697998047,-0.08014095602814615,-0.035677173287096964,-2.4695012354772903,2.5939367647102283,1.6879306949942112,0.5400626075983801,0.07470772813437096,True,8.73,2.490152184378723,100,0.07,0.01,0.189
3,1747220458.692598,18,5,-3.099999999999999,17.97130012512207,5.081538677215576,-3.0982437133789062,0.5962231159210205,-0.05362005904316902,0.01872238703072071,-0.07339589297771454,-0.05562930926680565,-9.888908386230469,-0.0865682688720968,-0.034513607458064664,-2.4713983591960997,3.220102407316899,1.8682823939695465,0.43122136265101096,0.08645995166995046,True,8.73,2.5766121360486736,100,0.07,0.01,0.189
3,1747220460.77353,20,5,-2.999999999999999,19.952003479003906,4.954214096069336,-2.9969635009765625,0.6020298600196838,-0.0021330814342945814,0.01973547786474228,-0.03726661205291748,0.07613707333803177,-9.91904067993164,-0.07654984877119324,-0.04588532109993528,-2.4728016039494984,2.8634509093974785,2.255606783903542,0.5794534918398683,0.06640207340735528,True,8.73,2.643014209456029,100,0.07,0.01,0.189
3,1747220462.8757546,22,5,-2.899999999999999,21.94831085205078,5.006925106048584,-2.8991470336914062,0.5991699695587158,0.03254067152738571,0.02169557474553585,-0.08868502080440521,0.04908580705523491,-9.943816184997559,-0.08320671334742533,-0.03473462629158254,-2.47418579321811,2.7194619850222526,1.9418065922616594,0.5755015795812093,0.052157958750548836,True,8.73,2.695172168206578,100,0.07,0.01,0.189
3,1747220464.973953,24,5,-2.799999999999999,23.968189239501953,5.034143924713135,-2.8001708984375,0.5911838412284851,-0.03428301960229874,0.026288988068699837,0.02155834436416626,0.10232558101415634,-9.757248878479004,-0.0836215726980861,-0.039017198080259816,-2.4754100695834294,3.1637889774075796,1.6115205606169045,0.5704351162893421,0.046666489953244336,True,8.73,2.741838658159822,100,0.07,0.01,0.189
3,1747220467.0764797,26,5,-2.699999999999999,25.950855255126953,4.984084129333496,-2.7049942016601562,0.5908942818641663,0.006957757752388716,0.01880105771124363,0.004012502729892731,0.030835554003715515,-9.94898796081543,-0.07936682264995788,-0.0398605826197752,-2.476970938366255,2.6362940111495936,2.403471845134476,0.43967031466218254,0.051898583197733494,True,8.73,2.793737241357556,100,0.07,0.01,0.189
3,1747220469.1779373,28,5,-2.5999999999999988,27.945863723754883,5.0037713050842285,-2.59564208984375,0.6076410412788391,0.011318537406623363,0.0212851669639349,0.00025380030274391174,0.02314082905650139,-9.920150756835938,-0.08271629833030998,-0.03790235010275253,-2.477806922635105,2.743382212376334,1.7604900290336118,0.5560405774014142,0.05444217600955993,True,8.73,2.848179417367116,100,0.07,0.01,0.189
3,1747220471.2798576,30,5,-2.4999999999999987,29.9672908782959,5.0229692459106445,-2.503326416015625,0.5889114737510681,-0.010209179483354092,0.020770253613591194,-0.04812312871217728,-0.028711900115013123,-9.84459400177002,-0.0844153140286721,-0.0380172154256951,-2.47904734671992,2.8613929639751023,2.226347505977272,0.4368888238086693,0.04010658230099398,True,8.73,2.88828599966811,100,0.07,0.01,0.189
3,1747220473.3830442,32,5,-2.3999999999999986,31.947715759277344,4.9936113357543945,-2.4009323120117188,0.5983769297599792,-0.006367660593241453,0.02157745510339737,-0.1397845447063446,-0.03782401978969574,-9.904487609863281,-0.08062118677270058,-0.04026041417779361,-2.479994258926714,3.2244949760856914,1.7986821506300215,0.4145471516557692,0.05268136354039198,True,8.73,2.9409673632085016,100,0.07,0.01,0.189
3,1747220475.4641635,34,5,-2.2999999999999985,33.94922637939453,4.997251033782959,-2.2968368530273438,0.6120010614395142,0.01211173553019762,0.023109761998057365,-0.0447050966322422,0.04460051655769348,-9.861321449279785,-0.08358568030666179,-0.03868747536691831,-2.482637457585759,3.2147082645954947,2.1468303687322328,0.573598884888973,0.05094627428400558,True,8.73,2.991913637492507,100,0.07,0.01,0.189
3,1747220477.542385,36,5,-2.1999999999999984,35.951515197753906,5.022475719451904,-2.19482421875,0.61021888256073,-0.013003867119550705,0.020696748048067093,-0.06800983101129532,0.020718522369861603,-9.835700988769531,-0.08449620031181293,-0.037351716544085416,-2.4853541630259532,3.085517700881948,2.0405442639836764,0.5824218194759819,0.05369099296224053,True,8.73,3.0456046304547475,100,0.07,0.01,0.189
3,1747220479.6426344,38,5,-2.0999999999999983,37.967811584472656,5.0027289390563965,-2.1007003784179688,0.6144881844520569,-0.01320588868111372,0.02497068978846073,-0.04469379037618637,-0.007593519985675812,-9.883151054382324,-0.08485336996589664,-0.04079067974946272,-2.4902331956994352,3.429991576077193,1.997020565190653,0.5623919356569533,0.03231147988661041,True,8.73,3.077916110341358,100,0.07,0.01,0.189
3,1747220481.7442105,40,5,-1.9999999999999982,39.9711799621582,4.980545520782471,-2.0071487426757812,0.5854937434196472,0.014673351310193539,0.025168074294924736,-0.06494183093309402,-0.005584696773439646,-9.919644355773926,-0.08307357272263514,-0.039099764719256115,-2.4949394281927484,3.1881203665626856,2.0051102986188893,0.4236131951221377,0.03549895582510061,True,8.73,3.1134150661664584,100,0.07,0.01,0.189
4,1747220500.8787234,0,-3,-5,-0.22826096415519714,-2.8359246253967285,-4.9770050048828125,0.021829692646861076,0.707852303981781,0.07998524606227875,-0.15898512303829193,0.009963445365428925,-10.15737247467041,-0.055125760850619744,0.11762107861390238,-2.435628191921735,3.394278445105343,1.672584902796102,0.43737886828041617,0.2820506445812587,True,3.62,0.2820506445812587,50,0.0,0.112,0.134
4,1747220503.3159788,2,-2.091065813434365,-5,2.201514959335327,-1.9715564250946045,-4.954582214355469,0.6714107394218445,-0.2878958582878113,-0.04117696359753609,-0.06910866498947144,0.051255274564027786,-9.766959190368652,-0.09901513101785886,-0.0783135357293665,-2.4434977061984244,2.9259794735662115,1.6335101149556885,0.4655314606888011,0.23864942486860274,True,3.62,0.5207000694498615,50,0.0,0.112,0.134
4,1747220505.314622,4,-3,-5,3.8599143028259277,-3.213559150695801,-5.001365661621094,0.5422859787940979,-0.2708630859851837,0.0008408596622757614,-0.06484731286764145,0.03167867287993431,-9.818504333496094,-0.004163942073470618,-0.08321175272223982,-2.4511361530958005,3.3446898611275024,1.6561298017597976,0.5977422560998016,0.25540825834401076,True,3.62,0.7761083277938723,50,0.0,0.112,0.134
4,1747220507.5397475,6,-2.091065813434365,-5,6.213390350341797,-2.0067341327667236,-5.001091003417969,0.5583866834640503,0.6108535528182983,0.018909286707639694,-0.0901511162519455,0.03686040639877319,-9.91956901550293,-0.15723533522147962,0.006976090363987841,-2.4569995187253246,3.1790388877071676,1.696456591289757,0.42797457544716466,0.22945253163057908,True,3.62,1.0055608594244514,50,0.0,0.112,0.134
4,1747220509.042881,8,-3,-5,6.400730609893799,-1.1527591943740845,-4.565162658691406,-0.2146422564983368,0.386923223733902,0.7311925888061523,-0.04260355979204178,0.07665372639894485,-9.593085289001465,-0.0018250649873724283,-0.00012228223630946324,-2.4636517759648093,3.0591483978161915,1.8730395680002283,0.43439586272967634,2.48174226895068,False,3.62,3.4873031283751317,50,0.0,0.112,0.134
4,1747220509.5471733,10,-2.091065813434365,-5,6.168502330780029,-0.9751863479614258,-4.209861755371094,-0.3466155230998993,0.4327225387096405,0.7924787998199463,-0.12996380031108856,-0.07234154641628265,-9.72276782989502,-0.0009768499280353074,-0.00020473617721687503,-2.4644002388351636,3.299076127350754,1.7890743583092892,0.5538494242471297,4.068154350111054,False,3.62,7.555457478486185,50,0.0,0.112,0.134
4,1747220510.050575,12,-3,-5,5.886154651641846,-0.7919544577598572,-3.8075714111328125,-0.45521023869514465,0.4728745222091675,0.7933012247085571,-0.11145788431167603,0.06372439116239548,-9.827727317810059,-0.0006603088380846713,-2.6605780168576552e-05,-2.464913982367215,3.131389304315533,2.2442343203075095,0.42255681663321604,6.60881653549219,False,3.62,14.164274013978375,50,0.0,0.112,0.134
4,1747220510.5553844,14,-2.091065813434365,-5,5.580438613891602,-0.5873948931694031,-3.397216796875,-0.5456094741821289,0.5131174325942993,0.770649254322052,-0.07117191702127457,0.011068398132920265,-9.927626609802246,-0.0004951643796105232,3.057723697805919e-05,-2.4654669217431016,2.5739293812790827,2.2267449020587953,0.5425354037116875,8.701663873485213,False,3.62,22.865937887463588,50,0.0,0.112,0.134
4,1747220511.059221,16,-3,-5,5.263988971710205,-0.3583870530128479,-3.0017623901367188,-0.6048620939254761,0.5623671412467957,0.7417418956756592,-0.0889565572142601,0.0348411425948143,-9.93924331665039,-6.554901502896977e-05,0.00010896990116603583,-2.4660259651731438,3.44322178551921,1.8634562409381592,0.536534703978815,11.235346247745209,False,3.62,34.1012841352088,50,0.0,0.112,0.134
4,1747220511.563284,18,-2.091065813434365,-5,4.913125514984131,-0.07713086903095245,-2.5936050415039062,-0.6584591269493103,0.6188502907752991,0.7127393484115601,-0.10829146206378937,0.0019101292127743363,-9.852188110351562,-0.00041053742356906886,0.00010909300492004592,-2.466733426338573,2.867451440883181,2.4911400476217076,0.45575692726573,13.457821311160435,False,3.62,47.55910544636924,50,0.0,0.112,0.134
4,1747220512.0671058,20,-3,-5,4.569720268249512,0.2251642942428589,-2.2204360961914062,-0.6967123746871948,0.67630535364151,0.6960678100585938,-0.11762650310993195,0.01457241177558899,-9.837299346923828,-0.0001968051711358797,8.758347273613185e-05,-2.467483588951319,3.174120925087952,2.0950244933250883,0.5295739988614385,16.00691078316752,False,3.62,63.56601622953676,50,0.0,0.112,0.134
4,1747220512.5705667,22,-2.091065813434365,-5,4.215792655944824,0.5651094317436218,-1.8599624633789062,-0.7317726612091064,0.7402081489562988,0.6835429668426514,-0.06698589771986008,0.025118913501501083,-9.830495834350586,-3.987425026936061e-05,0.00016238228384725105,-2.468208145140251,3.1914996399485394,2.195700042976119,0.443468764293076,18.25357864970132,False,3.62,81.81959487923808,50,0.0,0.112,0.134
4,1747220513.0742,24,-3,-5,3.8586323261260986,0.9356563091278076,-1.5127944946289062,-0.7597528696060181,0.8001660704612732,0.6835094690322876,-0.09491664916276932,0.0392182394862175,-9.71209716796875,9.71450618001869e-06,0.00016732313368528613,-2.4688355449899952,3.08943191345095,1.528339803736395,0.45130559632291267,20.81645225763604,False,3.62,102.63604713687413,50,0.0,0.112,0.134
4,1747220513.5784094,26,-2.091065813434365,-5,3.483630657196045,1.3497602939605713,-1.1629714965820312,-0.7900353074073792,0.8676511645317078,0.6821606755256653,-0.09979506582021713,0.013773571699857712,-9.761857986450195,3.663034475100837e-05,0.00012730446393550445,-2.4693942462367486,2.845323582429292,2.0135273160751668,0.43428550887231004,23.09867875916141,False,3.62,125.73472589603554,50,0.0,0.112,0.134
4,1747220514.0836155,28,-3,-5,3.100130558013916,1.7918145656585693,-0.822052001953125,-0.8211193084716797,0.9335339665412903,0.6854169368743896,-0.02883928269147873,-0.19840621948242188,-9.777643203735352,0.0001279519449631331,1.7955017865543358e-05,-2.4697960743439085,2.7283173737194257,2.0762835766065924,0.5054259785131464,25.698642659370044,False,3.62,151.4333685554056,50,0.0,0.112,0.134
4,1747220514.589094,30,-2.091065813434365,-5,2.6922569274902344,2.2789056301116943,-0.47442626953125,-0.855923593044281,1.0010309219360352,0.6894804835319519,-0.05973562225699425,0.05064285919070244,-9.741891860961914,7.262150374279874e-05,0.00016216002333440793,-2.470387213448069,2.754604911946725,1.7829464649010083,0.5055990711327499,28.02303159405709,False,3.62,179.4564001494627,50,0.0,0.112,0.134
4,1747220515.0943012,32,-3,-5,2.2729363441467285,2.793193817138672,-0.13140869140625,-0.8905030488967896,1.0711838006973267,0.6955981850624084,-0.05067764222621918,-0.03326528146862984,-9.713990211486816,5.068639794746255e-05,2.836763471171205e-05,-2.4709338359506923,2.5140412728647723,2.305427981325538,0.5798972984054371,30.67511352109721,False,3.62,210.1315136705599,50,0.0,0.112,0.134
4,1747220515.5976598,34,-2.091065813434365,-5,1.7925258874893188,3.395644187927246,0.2442474365234375,-0.9296694397926331,1.1535531282424927,0.69569993019104,-0.10167119652032852,0.006858663633465767,-9.838171005249023,8.458639128638851e-05,9.047642933227589e-05,-2.4713318329714715,2.6028375652358626,2.469857388494554,0.5428008027518598,33.08968882480719,False,3.62,243.2212024953671,50,0.0,0.112,0.134
4,1747220516.102544,36,-3,-5,1.3313579559326172,3.9856808185577393,0.5888824462890625,-0.9643787741661072,1.221827507019043,0.6961855292320251,-0.08621763437986374,0.022841865196824074,-9.882843971252441,7.431503961864572e-05,2.303965199774093e-05,-2.4718546050429513,2.9402817277651314,1.777387538715063,0.4245491462441181,35.804330529656326,False,3.62,279.02553302502344,50,0.0,0.112,0.134
4,1747220516.6075776,38,-2.091065813434365,-5,0.8401437997817993,4.622713565826416,0.9401702880859375,-0.9987757802009583,1.2971118688583374,0.698136568069458,-0.07749196141958237,0.09577722102403641,-9.756098747253418,2.9061607161477808e-05,1.6858580136144155e-05,-2.4723280442937936,3.058149333700534,2.171128155492232,0.5005929856550615,38.22584687650152,False,3.62,317.25137990152496,50,0.0,0.112,0.134
4,1747220518.109632,40,-3,-5,-0.7287960052490234,6.718008995056152,1.9862518310546875,-1.099753737449646,1.504492998123169,0.7000222206115723,-0.14825677871704102,0.046716660261154175,-9.6945219039917,-2.6391701341459902e-05,2.039021983899533e-05,-2.4736471277364545,3.2130397612293837,1.947656544893159,0.5000789753509703,42.45093918292145,False,3.62,359.7023190844464,50,0.0,0.112,0.134
5,1747220525.975501,0,-4,-5,-5.08905553817749,11.262269020080566,-5.321235656738281,0.15499602258205414,-1.1308221817016602,1.7683544158935547,-0.191877081990242,-0.012480057775974274,-10.309308052062988,-0.0034977322157073516,0.0008690767967275894,-1.9650405296890399,2.603872331251209,1.667283236423124,0.546836110822695,16.0915671784673,False,3.41,16.0915671784673,100,0.18,0.144,0.08
5,1747220526.4790738,2,-3.6,-5,0.501023530960083,-15.44558334350586,-4.4627227783203125,0.01915673539042473,-4.332408428192139,2.159952163696289,-0.1757068634033203,-0.11836332082748413,-12.660670280456543,-0.001902182561437835,0.0002360102172645123,-1.9714950352825678,2.9356865437191164,2.3627908238094713,0.48011964469545426,11.952131275032695,False,3.41,28.043698453499996,100,0.18,0.144,0.08
5,1747220526.9851964,4,-3.2,-5,0.5240147113800049,-18.0670166015625,-3.3745269775390625,-0.020135920494794846,-4.226452827453613,1.2715809345245361,-0.19958055019378662,-0.1398501843214035,-11.229881286621094,-0.0009282390220234301,0.00028523330884524167,-1.9748240544402897,3.4862900785333277,2.2501761243879193,0.5979858040720752,15.354244328672966,False,3.41,43.39794278217296,100,0.18,0.144,0.08
5,1747220527.4893725,6,-2.8000000000000003,-5,0.5903259515762329,-20.302047729492188,-2.6508941650390625,-0.013334215618669987,-4.169374465942383,0.7761051058769226,-0.07295193523168564,-0.1525496542453766,-10.629931449890137,-8.258543406453461e-05,0.0018037569608032255,-1.9772542071224481,2.717374742794562,1.893390863545132,0.5015298131013967,18.46901584436647,False,3.41,61.86695862653943,100,0.18,0.144,0.08
5,1747220527.9930665,8,-2.4000000000000004,-5,0.7096536755561829,-22.44152069091797,-2.2529754638671875,0.031317684799432755,-4.130053520202637,0.5246468186378479,-0.24870863556861877,-0.08885496854782104,-9.916921615600586,0.00044286299955248904,0.002389998979476421,-1.9793541261096121,2.638652925466072,1.9520923395812493,0.5245024046864852,21.50250787552327,False,3.41,83.36946650206269,100,0.18,0.144,0.08
5,1747220528.4976535,10,-2.0000000000000004,-5,0.8765435814857483,-24.651107788085938,-2.00506591796875,0.08929277211427689,-4.06193208694458,0.4812696874141693,-0.15985223650932312,-0.059448592364788055,-9.65383529663086,0.0005768486985641965,0.001930971798868189,-1.9810194031499104,3.255505919144364,2.441906685253883,0.40836047135703113,24.60243425362069,False,3.41,107.97190075568338,100,0.18,0.144,0.08
5,1747220529.0009012,12,-1.6000000000000005,-5,1.040777325630188,-26.66204071044922,-1.805755615234375,0.10990048944950104,-4.008170127868652,0.5407384634017944,-0.22778627276420593,-0.12384925782680511,-9.55495548248291,0.000681872402511015,0.0013314034014009948,-1.9820501396107513,2.558093189847112,1.9980001569008299,0.5550288551191799,27.53931087351755,False,3.41,135.51121162920094,100,0.18,0.144,0.08
5,1747220529.5054047,14,-1.2000000000000006,-5,1.2001351118087769,-28.641780853271484,-1.5728836059570312,0.13235978782176971,-3.9089853763580322,0.6223032474517822,-0.20766238868236542,-0.02914588898420334,-9.548895835876465,0.0008016066062049196,0.0007407795578006967,-1.9828627276901758,3.4765679727408525,1.6474683748468153,0.5298985210051174,30.473480344936743,False,3.41,165.9846919741377,100,0.18,0.144,0.08
5,1747220530.010651,16,-0.8000000000000006,-5,1.3329099416732788,-30.51150131225586,-1.2980117797851562,0.12516742944717407,-3.7914795875549316,0.6890116930007935,-0.17835120856761932,-0.03609023615717888,-9.701583862304688,0.0006052396456061842,0.00044741184875958214,-1.9833849301699238,3.3464276526720775,1.8764893039151271,0.47090527604016186,33.34068922187809,False,3.41,199.32538119601577,100,0.18,0.144,0.08
5,1747220530.5146122,18,-0.4000000000000006,-5,1.4339416027069092,-32.347450256347656,-0.9777984619140625,0.08492951095104218,-3.686185598373413,0.7267146706581116,-0.09960512816905975,-0.06528366357088089,-9.677815437316895,0.0006399134929051592,0.00019738182148993906,-1.9836397956544833,2.5307798440235896,1.6977922365624931,0.4458220615464091,36.21121337261862,False,3.41,235.5365945686344,100,0.18,0.144,0.08
5,1747220531.0180414,20,-5.551115123125783e-16,-5,1.4863390922546387,-34.111839294433594,-0.6289901733398438,0.01800701767206192,-3.5510566234588623,0.7409679889678955,-0.24061524868011475,-0.00521821528673172,-9.742257118225098,0.000585939597121516,-3.0908798413126875e-05,-1.9837652933651868,2.81898976452142,2.3067609155665796,0.4747193924464059,39.05738018814117,False,3.41,274.59397475677554,100,0.18,0.144,0.08
5,1747220531.521435,22,0.39999999999999947,-5,1.4830397367477417,-35.77166748046875,-0.269805908203125,-0.058167099952697754,-3.412717342376709,0.7407658100128174,-0.12625837326049805,-0.06617623567581177,-9.888544082641602,0.0006113749437987107,-0.00010765163416114111,-1.9838291574929647,2.8452000049246977,2.179401486736593,0.41619181067802524,41.8534338245686,False,3.41,316.4474085813441,100,0.18,0.144,0.08
5,1747220532.026867,24,0.7999999999999995,-5,1.4270895719528198,-37.391822814941406,0.1057891845703125,-0.1378147155046463,-3.2794203758239746,0.7362908124923706,-0.20893922448158264,-0.01360006257891655,-9.853861808776855,0.0005419941683129219,-0.0002709288472967397,-1.9838871155801465,3.0006437785210425,1.7993174791121076,0.5263685574561806,44.65669824693486,False,3.41,361.104106828279,100,0.18,0.144,0.08
5,1747220532.5300567,26,1.1999999999999995,-5,1.3033527135849,-39.029151916503906,0.5038070678710938,-0.23277272284030914,-3.1287214756011963,0.7211595773696899,-0.23220394551753998,-0.02175314351916313,-9.836963653564453,0.0003623531458808502,-0.00041736771355981744,-1.983884780051775,3.3227764012258043,2.195525406053123,0.4805310330816008,47.52474032912849,False,3.41,408.62884715740745,100,0.18,0.144,0.08
5,1747220533.0338743,28,1.5999999999999996,-5,1.1207410097122192,-40.519962310791016,0.880340576171875,-0.33625146746635437,-2.9891011714935303,0.7081874012947083,-0.25448980927467346,0.008871696889400482,-9.865311622619629,0.0002542960149359138,-0.00041294856069696537,-1.9837711023443931,3.370370324824775,2.1079969521920225,0.5191606646471822,50.31067674183279,False,3.41,458.93952389924027,100,0.18,0.144,0.08
5,1747220533.5376608,30,1.9999999999999996,-5,0.8769142031669617,-41.93592834472656,1.2451248168945312,-0.46025457978248596,-2.8831143379211426,0.6969413161277771,-0.18694041669368744,0.04765983670949936,-9.848763465881348,0.00019526844637984925,-0.0004722320376573984,-1.9836078272751707,2.535439148749798,2.1378739415123116,0.519648600580677,53.08033072449,False,3.41,512.0198546237302,100,0.18,0.144,0.08
5,1747220534.0413988,32,2.3999999999999995,-5,0.5615952610969543,-43.3334846496582,1.6112518310546875,-0.5864598751068115,-2.7721893787384033,0.6846084594726562,-0.25434258580207825,-0.11833105981349945,-9.815413475036621,0.00011026294918443484,-0.0005491623190408837,-1.9836516753451316,2.790594483405103,2.4680034013059347,0.4698841696588443,55.88947630369449,False,3.41,567.9093309274247,100,0.18,0.144,0.08
5,1747220534.5448904,34,2.7999999999999994,-5,0.18491721153259277,-44.66366195678711,1.9673538208007812,-0.7092220187187195,-2.671538829803467,0.6801199316978455,-0.2372707724571228,-0.10553454607725143,-9.845059394836426,-2.456779545891831e-05,-0.0005071698060418045,-1.9837013491977435,2.9651680410104433,2.2309980183346787,0.4271400222627684,58.69244457000655,False,3.41,626.6017754974312,100,0.18,0.144,0.08
5,1747220535.049517,36,3.1999999999999993,-5,-0.2623370289802551,-45.980865478515625,2.3283233642578125,-0.8289850950241089,-2.5837488174438477,0.6789488792419434,-0.21629396080970764,0.06718268245458603,-9.855982780456543,-0.00011728360574175386,-0.0004649774234536227,-1.9837889500845427,3.1953577693730444,1.7899272543450586,0.5500661558954076,61.54200954917161,False,3.41,688.1437850466027,100,0.18,0.144,0.08
5,1747220535.5527918,38,3.599999999999999,-5,-0.7604642510414124,-47.24699783325195,2.68060302734375,-0.9414011240005493,-2.507619857788086,0.6747462153434753,-0.2080196738243103,0.036945607513189316,-9.81466007232666,-0.00022030929450604384,-0.0004772493134124841,-1.98392908901563,3.30300167067346,1.6751913208784406,0.4202487881068103,64.395515686068,False,3.41,752.5393007326707,100,0.18,0.144,0.08
5,1747220536.0581264,40,3.999999999999999,-5,-1.3253173828125,-48.51258087158203,3.0356903076171875,-1.0586016178131104,-2.4446299076080322,0.6740221381187439,-0.21067588031291962,0.017384495586156845,-9.827864646911621,-0.0003562799386728786,-0.0004253906146931708,-1.9841313489476002,3.2557227544849687,1.6051310976371869,0.5011133286621037,67.30471993333425,False,3.41,819.8440206660049,100,0.18,0.144,0.08
6,1747220537.838349,2.0,0.0,-5.0,-3.739888906478882,-52.903106689453125,4.291954040527344,-1.4149197340011597,-2.2826013565063477,0.6779491901397705,-0.32167941331863403,-0.02891642041504383,-9.776201248168945,-0.000520132871334115,-0.0003692828493375665,-1.9854794072971977,3.4392115004129744,1.8545745209656554,0.4975638942690151,54.01875074403009,False,4.49,54.01875074403009,50,0.05,0.084,0.036
6,1747220538.3415883,2.197817453308123,0.7779369011450796,-4.5,-4.489165306091309,-54.08293533325195,4.637184143066406,-1.5014982223510742,-2.269707202911377,0.6797701120376587,-0.25669071078300476,0.01732882484793663,-9.803894996643066,-0.0005137458711411538,-0.00012151390348394006,-1.9859739456287726,2.572302648762421,1.6446197484171337,0.43604757553736306,56.01713286850412,False,4.49,110.0358836125342,50,0.05,0.084,0.036
6,1747220538.8460941,2.1482208132215868,1.6646321509654174,-4.0,-5.27988862991333,-55.26762008666992,4.98797607421875,-1.5678434371948242,-2.228797435760498,0.6781038045883179,-0.271931916475296,-0.010392735712230206,-9.787179946899414,-0.0008552055361860005,-9.558181606372771e-05,-1.9863978418441035,2.8733062185749914,2.317782650020773,0.4283432899549279,58.1140419232706,False,4.49,168.1499255358048,50,0.05,0.084,0.036
6,1747220539.3512728,1.8081204253903274,2.5673112991572866,-3.5,-6.081939220428467,-56.41088104248047,5.3321533203125,-1.6301454305648804,-2.1890082359313965,0.6820719242095947,-0.2279777228832245,-0.09716587513685226,-9.803502082824707,-0.0007914148739051331,4.2128428579883775e-05,-1.986751762426784,2.977927985870188,2.428334048714047,0.4842198574334886,60.155524645499554,False,4.49,228.30545018130437,50,0.05,0.084,0.036
6,1747220539.8546689,1.169091277972464,3.3787959956614535,-3.0,-6.917706489562988,-57.55476379394531,5.683128356933594,-1.6779086589813232,-2.15303111076355,0.6827949285507202,-0.2623017728328705,0.004541920498013496,-9.811436653137207,-0.0005678018245259428,0.0001280665117159417,-1.9870655708404703,3.0990637360219666,1.93584047606781,0.569408514502006,62.07810986837134,False,4.49,290.3835600496757,50,0.05,0.084,0.036
6,1747220540.3583295,0.2615553275524854,3.9902132901341303,-2.5,-7.766687393188477,-58.675533294677734,6.034721374511719,-1.7148562669754028,-2.1080613136291504,0.6846583485603333,-0.23043940961360931,-0.05132696405053139,-9.783671379089355,-0.0004636483018628863,0.00020361456421098625,-1.9873791850944686,3.2504848786115934,2.1038661764658304,0.47987854801826463,63.751783858614786,False,4.49,354.13534390829045,50,0.05,0.084,0.036
6,1747220540.862468,-0.8455795490339945,4.30472606629093,-2.0,-8.608457565307617,-59.74969482421875,6.3797607421875,-1.7368221282958984,-2.055177688598633,0.6841039061546326,-0.3013518750667572,-0.020872216671705246,-9.778921127319336,-0.0004132630950032247,0.00021306196393295162,-1.9877173590963857,3.4974545129400827,2.1087009298916803,0.43116602933351017,65.06497906562649,False,4.49,419.20032297391697,50,0.05,0.084,0.036
6,1747220541.3666797,-2.049999999999999,4.250704155516198,-1.5,-9.474259376525879,-60.819175720214844,6.733314514160156,-1.7711513042449951,-2.02681040763855,0.6844102144241333,-0.11773454397916794,-0.00850812066346407,-9.816681861877441,-0.0003669261401045243,0.00033790611566314016,-1.9881857889452803,2.550189724387522,1.9515422248584118,0.4608752545174219,66.00754776706283,False,4.49,485.2078707409798,50,0.05,0.084,0.036
6,1747220541.8708541,-3.2254282360512363,3.792760046192045,-1.0,-10.390924453735352,-61.910850524902344,7.106681823730469,-1.7836464643478394,-1.9635648727416992,0.684800386428833,-0.21281097829341888,-0.01235644705593586,-9.797798156738281,-0.00021631012969092412,0.0003102944217214172,-1.9884317246827574,3.180189277801587,2.387354280143054,0.4135861566501019,66.5884905093581,False,4.49,551.7963612503379,50,0.05,0.084,0.036
6,1747220542.3798864,-4.234553679141369,2.939253573852523,-0.5,-11.270369529724121,-62.90829086303711,7.4615478515625,-1.8035733699798584,-1.9052835702896118,0.6870545148849487,-0.2606702744960785,0.007396074011921883,-9.87325382232666,-0.0001593198575937914,0.00029623859344655946,-1.9886739307453305,2.791972677739345,2.2716530042287553,0.596120506049088,66.69923580704794,False,4.49,618.4955970573858,50,0.05,0.084,0.036
6,1747220542.883212,-4.944154131125643,1.7452113308808737,0.0,-12.141773223876953,-63.849769592285156,7.810035705566406,-1.8190988302230835,-1.8442387580871582,0.6839613914489746,-0.3084426820278168,0.04267121106386185,-9.817099571228027,-6.99292399848142e-05,0.00016987993209609505,-1.988756435264157,2.903546135593821,1.8107406496826193,0.48992129409808793,66.44925808944052,False,4.49,684.9448551468263,50,0.05,0.084,0.036
6,1747220543.3866606,-5.240803378993181,0.3100759892662778,0.5,-13.039008140563965,-64.7610855102539,8.163276672363281,-1.8315287828445435,-1.7527577877044678,0.6821268796920776,-0.2526606023311615,0.004011399112641811,-9.76595401763916,1.0754065973031682e-05,0.0002213485178972847,-1.988796715562073,3.3664390118688914,2.326773213279024,0.4297923060680101,65.98328474513231,False,4.49,750.9281398919586,50,0.05,0.084,0.036
6,1747220543.8928146,-5.045425660253547,-1.2297489390583247,1.0,-13.931058883666992,-65.61051940917969,8.508399963378906,-1.8500661849975586,-1.6725996732711792,0.6835752725601196,-0.191910982131958,-0.06332482397556305,-9.80933666229248,-3.615524540706884e-05,0.0002495546122519413,-1.988745263669079,3.069274438735986,2.3777522776931677,0.5183262301754457,65.42334563531239,False,4.49,816.351485527271,50,0.05,0.084,0.036
6,1747220544.396539,-4.325006043795975,-2.7130191528484255,1.5,-14.8455228805542,-66.43126678466797,8.860115051269531,-1.865195393562317,-1.5945745706558228,0.6847836375236511,-0.19920454919338226,0.009972582571208477,-9.82237434387207,0.00010372625603954506,0.00016591227674148148,-1.9887935841189248,3.212966938547812,1.66159990501002,0.46901989073777217,64.99898191010621,False,4.49,881.3504674373772,50,0.05,0.084,0.036
6,1747220544.9001696,-3.1000000000000028,-3.9693575034635176,2.0,-15.754673957824707,-67.19034576416016,9.207199096679688,-1.888231873512268,-1.5126607418060303,0.6849177479743958,-0.2319239228963852,-0.025739552453160286,-9.8516263961792,0.0001419433941119199,0.00012446586101416056,-1.9886266094126273,2.878887970459144,2.0327059112962695,0.578973097486199,64.87663561296293,False,4.49,946.2271030503401,50,0.05,0.084,0.036
6,1747220545.4033704,-1.4463860707160447,-4.837031429181853,2.5,-16.76323127746582,-67.9598617553711,9.587196350097656,-1.9073185920715332,-1.4000885486602783,0.6843991875648499,-0.17813116312026978,0.12584131956100464,-9.800765037536621,0.00013104467609921063,0.00016702117366843803,-1.988545776575241,3.2092773527334204,2.3387248772582403,0.5196784346304689,65.34007811122702,False,4.49,1011.5671811615672,50,0.05,0.084,0.036
6,1747220545.9068618,0.5081646363876857,-5.180985820832024,3.0,-17.70362091064453,-68.61116027832031,9.935615539550781,-1.9299756288528442,-1.2963459491729736,0.6857723593711853,-0.25245293974876404,-0.013216828927397728,-9.752591133117676,0.00013765811655462243,6.170949189878601e-05,-1.988512447530967,3.458945311682869,2.060165426384864,0.5142503729877083,66.35630284630805,False,4.49,1077.9234840078752,50,0.05,0.084,0.036
6,1747220546.4118457,2.593921273001407,-4.9092036153738485,3.5,-18.679758071899414,-69.22428131103516,10.2906494140625,-1.9669865369796753,-1.2069144248962402,0.6859934329986572,-0.2555229067802429,-0.009688799269497395,-9.759925842285156,0.0001601521670567886,8.425026893409556e-05,-1.9884183124953132,2.6362881506177005,2.4248505050411517,0.5139815027516932,68.08165370592373,False,4.49,1146.005137713799,50,0.05,0.084,0.036
6,1747220546.917004,4.613824533754626,-3.985552970263421,4.0,-19.66131591796875,-69.78065490722656,10.639144897460938,-2.0092687606811523,-1.125605583190918,0.684369683265686,-0.22170276939868927,0.0660204365849495,-9.834212303161621,0.00021334133762592107,-7.218461956798329e-05,-1.9883703126739438,2.5594248097967554,1.944978300668256,0.4999686965216917,70.44399284407258,False,4.49,1216.4491305578717,50,0.05,0.084,0.036
6,1747220547.420311,6.362038562233158,-2.437564447089895,4.5,-20.688308715820312,-70.29698181152344,10.993911743164062,-2.0509562492370605,-1.0192309617996216,0.6844035387039185,-0.26421359181404114,-0.017303483560681343,-9.851370811462402,0.00013784902763881192,-0.00015541213616285856,-1.9884621594960767,3.3200799808985293,1.627105562292153,0.551224618667114,73.34025294905713,False,4.49,1289.789383506929,50,0.05,0.084,0.036
6,1747220547.9248052,7.6445824462891245,-0.35804139528723766,5.0,-21.72951316833496,-70.75662231445312,11.341468811035156,-2.1055967807769775,-0.9296796917915344,0.683542013168335,-0.2166692316532135,-0.02214423380792141,-9.809322357177734,0.00013800014278472861,-0.00019562317744414368,-1.9886466615910958,2.874395436849653,1.6815866342518788,0.503466209148182,76.54418276584286,False,4.49,1366.3335662727718,50,0.05,0.084,0.036
7,1747220554.985761,0,-2,-5,8.526270866394043,-6.49355936050415,-5.852569580078125,5.048403263092041,-2.151479959487915,0.7215872406959534,-0.15345478057861328,-0.03672783821821213,-8.234241485595703,0.0019850652580305854,0.021425470023833836,-0.8282675283878708,3.412066319044304,2.413961573866459,0.41303006753576976,9.675548847603887,False,6.66,9.675548847603887,100,0.11,0.088,0.027
7,1747220555.4896514,2,-1.8038152202527649,-5,11.462461471557617,-7.714486598968506,-5.4864044189453125,5.5578837394714355,-2.2386462688446045,1.1541929244995117,-0.10612467676401138,-0.16646745800971985,-9.884565353393555,0.0009119185903777849,0.013426437807465129,-0.8898115653186637,2.878136344514592,1.7919527582878412,0.4653162108564446,11.167399093193156,False,6.66,20.842947940797043,100,0.11,0.088,0.027
7,1747220556.9928546,4,-2,-5,20.611345291137695,-10.837356567382812,-3.34228515625,5.830921649932861,-2.1359777450561523,0.7232629060745239,-0.14489200711250305,-0.029559005051851273,-10.314085960388184,0.0017476640130421428,0.0010448210476129778,-0.9606062488253927,3.244557123246545,2.392513084249259,0.4070867648057359,18.888718378536318,False,6.66,39.73166631933336,100,0.11,0.088,0.027
7,1747220557.4969342,6,-1.8038152202527649,-5,23.404191970825195,-11.78413200378418,-2.8516998291015625,5.706472873687744,-2.100937604904175,0.5873767733573914,-0.07229860126972198,-0.05861683934926987,-10.193836212158203,0.0015502270651001498,-0.00010174256696630049,-0.9798713306917951,2.563458785808142,2.064765089128837,0.4177432718472538,20.177408527391652,False,6.66,59.909074846725005,100,0.11,0.088,0.027
7,1747220558.0021803,8,-2,-5,26.050439834594727,-12.71960163116455,-2.46710205078125,5.56688117980957,-2.0897088050842285,0.5250314474105835,-0.11762738972902298,-0.045254357159137726,-9.954673767089844,0.0012574565591422365,-0.0005873349951035681,-0.9977583948082817,2.872192692394566,1.5758846169160727,0.5846569692571503,21.14577521336937,False,6.66,81.05485006009437,100,0.11,0.088,0.027
7,1747220558.506235,10,-1.8038152202527649,-5,28.846548080444336,-13.769243240356445,-2.111175537109375,5.411571979522705,-2.0967800617218018,0.515446126461029,-0.05751028656959534,-0.03497091680765152,-9.764030456542969,0.0010203985808750831,-0.0008499238300697663,-1.0126884268197773,3.3481166758574674,1.7018211166953985,0.5841290347410535,22.510200999328674,False,6.66,103.56505105942304,100,0.11,0.088,0.027
7,1747220559.0102248,12,-2,-5,31.336563110351562,-14.776141166687012,-1.8095703125,5.2547287940979,-2.1330201625823975,0.5363975167274475,-0.12334463000297546,-0.05005967244505882,-9.746268272399902,0.0007476124894598292,-0.0009013735909751365,-1.0239652399780275,2.5205279616474585,2.056089115438826,0.45783351550072204,23.394685243076147,False,6.66,126.95973630249918,100,0.11,0.088,0.027
7,1747220559.5158637,14,-1.8038152202527649,-5,33.81322479248047,-15.857267379760742,-1.506195068359375,5.114029884338379,-2.204533100128174,0.5707611441612244,-0.1499001681804657,-0.05957008898258209,-9.772172927856445,0.0005389021253772079,-0.0009005611982600658,-1.0320333390952143,2.5922045380133563,1.5736754071455823,0.490225874125121,24.541191233868386,False,6.66,151.50092753636756,100,0.11,0.088,0.027
7,1747220560.0189722,16,-2,-5,36.19544219970703,-16.97361946105957,-1.2021102905273438,4.97801399230957,-2.2666175365448,0.603732705116272,-0.0268733948469162,-0.07850469648838043,-9.7271146774292,0.00037128270323840947,-0.000825306564211623,-1.037667286150774,2.5853686661660182,2.4773755045243018,0.5100181340376985,25.42615054725445,False,6.66,176.927078083622,100,0.11,0.088,0.027
7,1747220560.5232573,18,-1.8038152202527649,-5,38.58113479614258,-18.174198150634766,-0.8833541870117188,4.872468948364258,-2.3697121143341064,0.6326276063919067,-0.13867709040641785,-0.0005201511085033417,-9.727170944213867,0.00021876442224587963,-0.0008106286916633576,-1.0402252145274755,3.07759746860785,1.525929669476447,0.5529378477942908,26.61802621408896,False,6.66,203.54510429771096,100,0.11,0.088,0.027
7,1747220561.0265536,20,-2,-5,40.8945198059082,-19.4235897064209,-0.5613937377929688,4.783051490783691,-2.4856767654418945,0.6518507599830627,-0.12213519215583801,-0.031651344150304794,-9.795069694519043,4.6033566249381976e-05,-0.0008200566679774332,-1.0416067750744953,3.2186320770456796,1.5825870965282025,0.5474083692906502,27.565624638815823,False,6.66,231.11072893652678,100,0.11,0.088,0.027
7,1747220561.5392709,22,-1.8038152202527649,-5,43.38883972167969,-20.868497848510742,-0.1997833251953125,4.6894707679748535,-2.6163601875305176,0.6702356934547424,-0.11909051239490509,0.004777573049068451,-9.875503540039062,-0.00015692035685487923,-0.0007551001239413498,-1.0426455317472727,2.8100404897036837,2.0654141754144755,0.5684843607370891,29.051448646857132,False,6.66,260.16217758338394,100,0.11,0.088,0.027
7,1747220562.043579,24,-2,-5,45.6590690612793,-22.269258499145508,0.13942718505859375,4.629439830780029,-2.749143362045288,0.6792483329772949,-0.1548522710800171,0.034013379365205765,-9.815295219421387,-0.00034791900602634514,-0.0006715601667212592,-1.0427579343837172,2.741776998473455,2.064731175100691,0.4180775657096882,30.106009773747296,False,6.66,290.26818735713124,100,0.11,0.088,0.027
7,1747220562.5478177,26,-1.8038152202527649,-5,47.96488952636719,-23.766775131225586,0.48882293701171875,4.589712619781494,-2.8849098682403564,0.6849532127380371,-0.1423691064119339,-0.031001422554254532,-9.7905912399292,-0.0004418629917031023,-0.0006404669668101519,-1.0427015676792344,3.1605739743983534,1.9622069351960874,0.4452236029425194,31.54290977684811,False,6.66,321.81109713397933,100,0.11,0.088,0.027
7,1747220563.0514784,28,-2,-5,50.227294921875,-25.303014755249023,0.8347015380859375,4.551819324493408,-3.012181520462036,0.6845300197601318,-0.17762839794158936,-0.09291237592697144,-9.80063247680664,-0.000587178595615493,-0.0004889846384040584,-1.0429500911126794,2.6172666344725375,2.246759581408005,0.443169060767707,32.72807477175989,False,6.66,354.53917190573924,100,0.11,0.088,0.027
7,1747220563.5557919,30,-1.8038152202527649,-5,52.53779220581055,-26.931806564331055,1.1866073608398438,4.546703815460205,-3.1467010974884033,0.6845139861106873,-0.06879279762506485,-0.07067771255970001,-9.790882110595703,-0.0006606314879779029,-0.00043907082999712367,-1.0431794287679936,3.236697797865788,1.7884351138692323,0.515938983781593,34.316790892179384,False,6.66,388.8559627979186,100,0.11,0.088,0.027
7,1747220564.0605812,32,-2,-5,54.864463806152344,-28.61809730529785,1.5380096435546875,4.55388069152832,-3.2673745155334473,0.6833624839782715,-0.21940922737121582,-0.017121609300374985,-9.848490715026855,-0.0006884468374036079,-0.00017499745755992843,-1.044015820842888,3.2152599924581606,2.0154968953411165,0.5671780910513247,35.693870333663305,False,6.66,424.5498331315819,100,0.11,0.088,0.027
7,1747220564.5657585,34,-1.8038152202527649,-5,57.16710662841797,-30.32444190979004,1.88592529296875,4.567798614501953,-3.3726322650909424,0.6861194372177124,-0.2244790494441986,-0.01065291091799736,-9.896350860595703,-0.000763160300935675,-0.00018331189083995407,-1.0455397838478844,2.9984820480540604,2.24860133023438,0.567155940858258,37.38391289628174,False,6.66,461.93374602786366,100,0.11,0.088,0.027
7,1747220565.0696352,36,-2,-5,59.53781509399414,-32.1076545715332,2.24169921875,4.612239360809326,-3.4842424392700195,0.6870667338371277,-0.15358643233776093,-0.010950478725135326,-9.887039184570312,-0.000782171132287692,7.290445787108862e-05,-1.047645817274994,3.3748665614909354,1.6016013871556436,0.4672907318599848,38.896552684944545,False,6.66,500.8302987128082,100,0.11,0.088,0.027
7,1747220565.5734804,38,-1.8038152202527649,-5,61.89521026611328,-33.8968391418457,2.58978271484375,4.656896114349365,-3.572129249572754,0.6835341453552246,-0.2501329779624939,-0.03183487057685852,-9.794852256774902,-0.0007033713064254956,0.00012359648294816896,-1.0498354438084563,3.3492752405134656,1.8408098240284878,0.4683608043549264,40.725275441085024,False,6.66,541.5555741538932,100,0.11,0.088,0.027
7,1747220566.0778625,40,-2,-5,64.4507064819336,-35.85308837890625,2.9600296020507812,4.69931697845459,-3.6621954441070557,0.6819043755531311,-0.2926062345504761,-0.06843660771846771,-9.825677871704102,-0.0007086768602160595,0.0002542488896038613,-1.052436004774431,2.54770483242956,1.9212942169259226,0.402731672540398,42.51153621690507,False,6.66,584.0671103707982,100,0.11,0.088,0.027
8,1747220567.7191617,0,-2,-4,72.48857116699219,-42.02296447753906,4.1006011962890625,4.842494964599609,-3.8215138912200928,0.6866579055786133,-0.22342166304588318,-0.014316599816083908,-9.801488876342773,-0.00028384027948654756,0.0004554334468101559,-1.0588409249082158,3.3977582560263433,1.9482762293215399,0.4370201330908745,83.19886041974232,False,5.77,83.19886041974232,50,0.17,0.114,0.104
8,1747220568.222661,2,-2,-3.9,74.95680236816406,-43.90359878540039,4.4457855224609375,4.881188869476318,-3.8511130809783936,0.6879523396492004,-0.19116275012493134,-0.10765181481838226,-9.823006629943848,-0.00026339010542160906,0.00047575660470126815,-1.0608620132718367,2.611120538765351,1.650027321263999,0.5460159975977484,84.54737570700865,False,5.77,167.74623612675097,50,0.17,0.114,0.104
8,1747220568.7276106,4,-2,-3.8,77.4821548461914,-45.81968688964844,4.796562194824219,4.914861679077148,-3.8592402935028076,0.6857643127441406,-0.160453200340271,-0.04580637440085411,-9.82119083404541,0.0003065090256463448,-0.00014021296693048565,-1.0624389580518154,2.928101808274034,1.837186079999665,0.41575302984450324,85.986585706818,False,5.77,253.73282183356898,50,0.17,0.114,0.104
8,1747220569.2314417,6,-2,-3.6999999999999997,80.01315307617188,-47.73495864868164,5.14697265625,4.939732074737549,-3.8660149574279785,0.6873717308044434,-0.17366522550582886,-0.057950545102357864,-9.740342140197754,-0.0002882537658338538,0.0006561497211956001,-1.0638088139779793,2.8052162821349853,1.858458032140966,0.4038952936738836,87.45228525346782,False,5.77,341.1851070870368,50,0.17,0.114,0.104
8,1747220569.737183,8,-2,-3.5999999999999996,82.50194549560547,-49.612239837646484,5.491996765136719,4.961093425750732,-3.8671152591705322,0.6892045736312866,-0.16967333853244781,-0.07565955072641373,-9.797858238220215,-8.378706832143394e-05,0.0006121549158192388,-1.06510865354446,2.9599094869762994,1.6742851248086383,0.5536726119155311,88.88267362183136,False,5.77,430.06778070886816,50,0.17,0.114,0.104
8,1747220570.241435,10,-2,-3.4999999999999996,85.17478942871094,-51.62237548828125,5.8638916015625,4.983369827270508,-3.866474151611328,0.689732015132904,-0.20088526606559753,0.008067093789577484,-9.818044662475586,-4.7607327931301185e-06,0.00045744148283499437,-1.0660918584835861,3.306665504797044,1.5043981416564056,0.41003465193055955,90.56109308459577,False,5.77,520.628873793464,50,0.17,0.114,0.104
8,1747220570.7462459,12,-2,-3.3999999999999995,87.70486450195312,-53.52488708496094,6.217933654785156,4.975774765014648,-3.842270612716675,0.6899726986885071,-0.22383765876293182,-0.07059149444103241,-9.834458351135254,5.3137686975964616e-05,0.000338448811312441,-1.066507765312901,3.112553558941016,2.3441845354103314,0.5548515598386137,92.0790157753921,False,5.77,612.7078895688561,50,0.17,0.114,0.104
8,1747220571.249397,14,-2,-3.2999999999999994,90.1793441772461,-55.39358139038086,6.56536865234375,4.969027996063232,-3.8474998474121094,0.6875551342964172,-0.18108852207660675,0.002361193299293518,-9.744708061218262,0.0001679905555434747,0.00023455778677302809,-1.0672153389165544,2.7380061061346144,1.6182761699950272,0.40406684942082516,93.54941213932449,False,5.77,706.2573017081806,50,0.17,0.114,0.104
8,1747220571.7552397,16,-2,-3.1999999999999993,92.69116973876953,-57.29202651977539,6.919586181640625,4.967174053192139,-3.8416826725006104,0.6889933347702026,-0.1737845540046692,-0.015598545782268047,-9.781198501586914,0.00019181403089068555,0.00034206439930288253,-1.0677748015642008,3.3147448841805756,1.5561153444710656,0.47561894303648694,95.08496062496927,False,5.77,801.34226233315,50,0.17,0.114,0.104
8,1747220572.2604067,18,-2,-3.099999999999999,95.1867446899414,-59.191349029541016,7.274238586425781,4.944392681121826,-3.8369321823120117,0.6904057264328003,-0.19707241654396057,-0.03834954649209976,-9.737262725830078,0.00018610175154167453,0.00016147479247031254,-1.0679725923298973,2.9620629701861905,1.6714431410158728,0.5513868336307378,96.62436952393048,False,5.77,897.9666318570804,50,0.17,0.114,0.104
8,1747220572.7646983,20,-2,-2.999999999999999,97.61471557617188,-61.058170318603516,7.622322082519531,4.89959716796875,-3.8247997760772705,0.6877426505088806,-0.27427124977111816,0.007558960467576981,-9.752570152282715,0.0001964703881969954,0.00011358839903908667,-1.0680416442697465,2.5031899955477237,2.2472456696032963,0.5956021672558615,98.10578617887948,False,5.77,996.0724180359599,50,0.17,0.114,0.104
8,1747220573.2685015,22,-2,-2.899999999999999,100.06351470947266,-62.96351623535156,7.97479248046875,4.863180637359619,-3.833308696746826,0.6867690682411194,-0.16434597969055176,-0.06007592752575874,-9.821369171142578,0.00015971370288013975,0.00019405356815927838,-1.0682977099398625,2.7114697461728405,1.682819632103569,0.5893670635228424,99.64298144910802,False,5.77,1095.715399485068,50,0.17,0.114,0.104
8,1747220573.773532,24,-2,-2.799999999999999,102.6212158203125,-64.9781494140625,8.344696044921875,4.824815273284912,-3.847120761871338,0.6879863739013672,-0.0796886682510376,0.05647727847099304,-9.79358959197998,0.00022447458360145571,2.3167730560190536e-05,-1.0685829408230145,2.670476380132266,1.637373351292001,0.533800809266662,101.34962817207487,False,5.77,1197.065027657143,50,0.17,0.114,0.104
8,1747220574.2782648,26,-2,-2.699999999999999,105.0236587524414,-66.89358520507812,8.696464538574219,4.779823303222656,-3.835852861404419,0.687924861907959,-0.22826795279979706,5.314871668815613e-05,-9.843724250793457,0.00023975086218823725,-0.00015537898060192422,-1.0688755485466643,3.447337162655205,2.240348388115626,0.44080946405161675,102.88729487827942,False,5.77,1299.9523225354224,50,0.17,0.114,0.104
8,1747220574.783929,28,-2,-2.5999999999999988,107.35887145996094,-68.7800521850586,9.043571472167969,4.731513023376465,-3.831657886505127,0.687949538230896,-0.24312148988246918,0.030616648495197296,-9.824694633483887,0.00013414883085908504,-0.00012195612283069,-1.068727397218049,3.3464959219916697,2.3314660592861025,0.4507413827584577,104.36943329282398,False,5.77,1404.3217558282463,50,0.17,0.114,0.104
8,1747220575.2893698,30,-2,-2.4999999999999987,109.71855926513672,-70.7056884765625,9.397712707519531,4.690124988555908,-3.8351564407348633,0.6877867579460144,-0.22042223811149597,0.013606436550617218,-9.777510643005371,0.00011097046767524939,0.00012493452971032565,-1.0684772048910043,3.1660846354695082,2.1648814835948516,0.42779104058920153,105.91069770338707,False,5.77,1510.2324535316334,50,0.17,0.114,0.104
8,1747220575.7958086,32,-2,-2.3999999999999986,112.01935577392578,-72.60135650634766,9.74554443359375,4.640578746795654,-3.837211847305298,0.6892648339271545,-0.20462825894355774,-0.03216000273823738,-9.780230522155762,3.353449438717262e-05,-0.00011386362745729712,-1.0683219988635095,2.7040979717150866,2.483020769634604,0.5744621776594991,107.4018765599508,False,5.77,1617.6343300915842,50,0.17,0.114,0.104
8,1747220576.299271,34,-2,-2.2999999999999985,114.34455871582031,-74.5408706665039,10.100006103515625,4.606802463531494,-3.8593764305114746,0.6893433928489685,-0.23892708122730255,0.000685766339302063,-9.816949844360352,2.4735540456556437e-06,-5.1571199037787674e-05,-1.0681057611819056,2.822789362823332,1.9059505512718196,0.5480796009338197,108.9549731937995,False,5.77,1726.5893032853837,50,0.17,0.114,0.104
8,1747220576.8025932,36,-2,-2.1999999999999984,116.61207580566406,-76.45729064941406,10.447288513183594,4.575641632080078,-3.8875272274017334,0.6878484487533569,-0.1699640452861786,-0.04994863644242287,-9.7564058303833,7.994525077613458e-05,-4.519355396113678e-05,-1.0679736977368797,2.680358264754309,1.692700904532444,0.4577484059698643,110.46333691902105,False,5.77,1837.0526402044047,50,0.17,0.114,0.104
8,1747220577.3081446,38,-2,-2.0999999999999983,118.90042114257812,-78.42211151123047,10.798873901367188,4.534088611602783,-3.909576177597046,0.6882581114768982,-0.2704204320907593,-0.09385579824447632,-9.856378555297852,-3.2204520903705016e-05,-0.00015259915859777416,-1.068121972897129,2.577256923249812,1.897139393497667,0.41532656432322945,112.0339154756488,False,5.77,1949.0865556800536,50,0.17,0.114,0.104
8,1747220577.8114932,40,-2,-1.9999999999999982,121.28941345214844,-80.50800323486328,11.169212341308594,4.500255584716797,-3.931502342224121,0.6903998255729675,-0.20868602395057678,0.010944724082946777,-9.845155715942383,-3.56734724997822e-05,-6.259304020973733e-05,-1.0683164052171272,3.484445962921294,1.785743789984345,0.4683320796734528,113.7756716746164,False,5.77,2062.86222735467,50,0.17,0.114,0.104
9,1747220616.360661,0,-4,-5,-0.4116155505180359,-4.29534912109375,-5.017051696777344,-0.7718145251274109,-0.5719045400619507,-0.005791517905890942,-0.14137627184391022,-0.04264339059591293,-10.13715648651123,0.25851275237652793,0.13273130271661573,-2.1043778343568196,3.0092984617138727,2.4406416893376868,0.5959031849076608,0.5069015931343113,True,3.74,0.5069015931343113,100,0.17,0.014,0.011
9,1747220618.5686932,2,-3.6,-5,2.7759366035461426,-3.3362972736358643,-4.903755187988281,1.1889817714691162,0.5721401572227478,-0.0245840884745121,-0.03167872130870819,0.03404359892010689,-10.226726531982422,-0.20574316069954843,-0.14638312791028465,-2.1279554630451023,3.0308756888298323,2.2160489951027182,0.440840090505125,0.8251544124912458,True,3.74,1.332056005625557,100,0.17,0.014,0.011
9,1747220619.5349903,4,-3.2,-5,4.191272735595703,-2.6759066581726074,-4.912513732910156,0.6530048847198486,0.10702797770500183,-0.07358624786138535,-0.03217757120728493,0.04368152469396591,-9.842467308044434,-0.1326274521514499,-0.030345389238363087,-2.162648515320359,3.4399648593430197,1.5228207623593684,0.585122570964529,0.5647237707582209,True,3.74,1.896779776383778,100,0.17,0.014,0.011
9,1747220622.8680458,6,-2.8000000000000003,-5,6.182178497314453,-3.0799267292022705,-4.8748321533203125,0.13745242357254028,0.12781421840190887,0.5519481897354126,-0.08409396559000015,0.053384583443403244,-9.262320518493652,0.001217248236943161,-0.001901491068856165,-2.1701438400864306,3.1334651257266968,2.457252219901745,0.45940130885420377,0.35667207410738383,True,3.74,2.2534518504911616,100,0.17,0.014,0.011
9,1747220623.3732882,8,-2.4000000000000004,-5,6.195432662963867,-3.033311605453491,-4.593498229980469,-0.00316142407245934,0.14256030321121216,0.7271481156349182,-0.1052011251449585,0.072776660323143,-9.589959144592285,-0.00042624410039676755,1.9767773808379e-05,-2.1682176124015875,3.1416904689680365,2.343486974286341,0.4690869671092863,1.95519578368223,False,3.74,4.208647634173392,100,0.17,0.014,0.011
9,1747220623.8769183,10,-2.0000000000000004,-5,6.130012035369873,-2.950927972793579,-4.239921569824219,-0.14298395812511444,0.16325394809246063,0.7917333245277405,-0.11850547790527344,-0.011433038860559464,-9.680768966674805,-0.0002067066194305197,-0.00017068924180908842,-2.167180657605192,3.000701052558055,1.925191352050572,0.5643121113393175,4.056943440059501,False,3.74,8.265591074232894,100,0.17,0.014,0.011
9,1747220624.3826694,12,-1.6000000000000005,-5,5.984095096588135,-2.838794231414795,-3.8074874877929688,-0.2886396050453186,0.19672614336013794,0.7908619046211243,-0.10544416308403015,-0.009769123047590256,-9.846489906311035,-0.00012051861849868682,-0.00018382692085663443,-2.166473533158059,2.8693366974898016,2.2564593728149016,0.4122611613352516,6.256821001631085,False,3.74,14.52241207586398,100,0.17,0.014,0.011
9,1747220624.8863943,14,-1.2000000000000006,-5,5.78478479385376,-2.7258074283599854,-3.4008102416992188,-0.41815298795700073,0.21698422729969025,0.769176721572876,-0.0966729074716568,0.05762815475463867,-10.040643692016602,0.0007250836162716293,-0.001310666000049981,-2.1661135214507077,3.0718701552201813,1.6750714469200307,0.5394881494373629,8.50736487255537,False,3.74,23.029776948419347,100,0.17,0.014,0.011
9,1747220625.3919659,16,-0.8000000000000006,-5,5.518942356109619,-2.605473518371582,-2.9943161010742188,-0.5443266034126282,0.23415599763393402,0.7330649495124817,-0.10787668079137802,-0.039165060967206955,-9.860033988952637,-0.00037339281874431546,5.658136742923085e-05,-2.1659615846148452,3.2234483830647016,1.945361850943927,0.4020476991073628,10.822895724458597,False,3.74,33.852672672877944,100,0.17,0.014,0.011
9,1747220625.8959625,18,-0.4000000000000006,-5,5.201211929321289,-2.484143018722534,-2.6090316772460938,-0.6606777906417847,0.24794724583625793,0.7071295976638794,-0.1007251963019371,0.04887613281607628,-9.856186866760254,-0.0002389079329886757,-3.3507317168352064e-05,-2.165799107685515,3.38872156409266,1.7866806025348625,0.5280969063693378,13.185953045610704,False,3.74,47.038625718488646,100,0.17,0.014,0.011
9,1747220626.4010398,20,-5.551115123125783e-16,-5,4.821667671203613,-2.3571300506591797,-2.2306747436523438,-0.7776131629943848,0.2581424415111542,0.6870752573013306,-0.06958531588315964,0.017103983089327812,-9.878619194030762,-0.00019797761991009632,-0.00011093334570567274,-2.165635073693512,3.090950679646809,1.846241266055776,0.5185425320457071,15.60791455430709,False,3.74,62.64654027279573,100,0.17,0.014,0.011
9,1747220626.9051173,22,0.39999999999999947,-5,4.3962507247924805,-2.2282986640930176,-1.871826171875,-0.8931183815002441,0.2686131000518799,0.6732913255691528,-0.0678495243191719,0.01707727089524269,-9.875737190246582,-0.00011981548751547828,-1.3089082012576793e-05,-2.165574905061017,2.7188400076308867,1.8124460996106824,0.4056049469455034,18.071674352726937,False,3.74,80.71821462552268,100,0.17,0.014,0.011
9,1747220627.4100327,24,0.7999999999999995,-5,3.911539077758789,-2.0912575721740723,-1.5150222778320312,-1.00278639793396,0.2889377772808075,0.6702785491943359,-0.0939968079328537,-0.01945411041378975,-9.928007125854492,-0.0001166864399259645,-1.865789777208989e-05,-2.165500349596997,2.5070104503840023,2.460728791097768,0.5330793110298477,20.592491405778787,False,3.74,101.31070603130146,100,0.17,0.014,0.011
9,1747220627.9131992,26,1.1999999999999995,-5,3.377126932144165,-1.9456510543823242,-1.1641159057617188,-1.1029878854751587,0.3113534450531006,0.6677241325378418,-0.11886975914239883,0.046694543212652206,-9.783391952514648,-0.00011004187667471293,3.07994034395887e-05,-2.1654184092868123,2.8721103382944326,2.397744901319152,0.4040495929711919,23.160386723556318,False,3.74,124.47109275485778,100,0.17,0.014,0.011
9,1747220628.4182506,28,1.5999999999999996,-5,2.7618391513824463,-1.7858563661575317,-0.7966842651367188,-1.203587532043457,0.3165571689605713,0.672400176525116,-0.13817209005355835,0.03631841018795967,-9.779338836669922,-0.00017583528215240092,3.6911677142541426e-05,-2.165337342034332,3.2297511335720634,1.6958123082328052,0.49472275576355634,25.808848279609272,False,3.74,150.27994103446704,100,0.17,0.014,0.011
9,1747220628.9256697,30,1.9999999999999996,-5,2.1437172889709473,-1.6296294927597046,-0.45696258544921875,-1.287739872932434,0.3294934332370758,0.6752750277519226,-0.0913814976811409,0.07024774700403214,-9.780180931091309,-5.03403873718871e-05,8.15236294329356e-05,-2.1652587292339334,3.350112835330667,1.9105776032918738,0.4693475806724301,28.45673708775297,False,3.74,178.73667812222,100,0.17,0.014,0.011
9,1747220629.4301507,32,2.3999999999999995,-5,1.4704804420471191,-1.4653117656707764,-0.10871124267578125,-1.3844351768493652,0.3327031433582306,0.6802049875259399,-0.016243912279605865,0.06601612269878387,-9.79156494140625,-4.3074630621155445e-06,-2.2906067919718132e-05,-2.165290735361841,2.711464247996786,1.6235959785049494,0.5943366043149442,31.1595395536068,False,3.74,209.89621767582682,100,0.17,0.014,0.011
9,1747220629.9348392,34,2.7999999999999994,-5,0.764775812625885,-1.2962825298309326,0.234832763671875,-1.476666808128357,0.3529275953769684,0.6830430626869202,-0.09331658482551575,0.05588137358427048,-9.798503875732422,-0.0001741411272571513,0.00022389446323553528,-2.167981822695591,2.5653379428007153,2.2895324403700053,0.5558835497606938,33.89340837704034,False,3.74,243.78962605286716,100,0.17,0.014,0.011
9,1747220630.4397733,36,3.1999999999999993,-5,0.0698094516992569,-1.1308717727661133,0.557159423828125,-1.5220527648925781,0.3619626760482788,0.6842896342277527,-0.18058255314826965,0.07642579078674316,-9.646392822265625,-0.00014940596414113498,0.0008769402217765176,-2.175046999258118,3.44112374561814,1.9524915685918642,0.4053494970276637,36.61443791745524,False,3.74,280.4040639703224,100,0.17,0.014,0.011
9,1747220630.944202,38,3.599999999999999,-5,-0.4378015100955963,-1.0146571397781372,0.7934341430664062,-1.509227991104126,0.3433990180492401,0.7213284373283386,-0.040669385343790054,0.06782007217407227,-9.580484390258789,0.000259585572355891,0.0011447094312476845,-2.182500461659185,2.6786667876200285,1.5801977537259457,0.5840022118904149,39.14490419731871,False,3.74,319.5489681676411,100,0.17,0.014,0.011
9,1747220631.4487658,40,3.999999999999999,-5,-0.7883840203285217,-0.9349980354309082,0.9835586547851562,-1.4554202556610107,0.34325531125068665,0.8025054335594177,-0.12970486283302307,0.04342751204967499,-9.483370780944824,2.2343231767282913e-05,0.0007469711376529927,-2.1882646258501306,2.9769187155200476,2.4639697391158433,0.4512004152019175,41.51926601921995,False,3.74,361.06823418686105,100,0.17,0.014,0.011
10,1747220633.241761,0,-3,-5,-1.507387399673462,-0.7293666005134583,1.7144317626953125,-1.3561935424804688,0.34733134508132935,1.1559219360351562,-0.16555583477020264,0.022387415170669556,-9.406285285949707,-0.0008842782647526106,-0.0004774185862789226,-2.2022019995198363,2.615429931947833,1.8045241100065033,0.5706602475576675,7.246487887483826,False,4.74,7.246487887483826,50,0.06,0.138,0.034
10,1747220633.74594,2,-3,-4.9,-2.1196343898773193,-0.5680646896362305,1.9318771362304688,-1.5235134363174438,0.4007839858531952,1.2378871440887451,-0.07489319145679474,0.07925944030284882,-9.378754615783691,-0.00046285035987390943,-0.0010663778119972813,-2.204241952706983,3.0670191376394853,2.4442949893232777,0.565736774214622,8.340278296591945,False,4.74,15.58676618407577,50,0.06,0.138,0.034
10,1747220634.2491472,4,-3,-4.800000000000001,-3.0434088706970215,-0.3302733898162842,2.1440200805664062,-1.728569746017456,0.44760552048683167,1.3116767406463623,-0.11589261889457703,0.1178758442401886,-9.334202766418457,3.606467950462461e-05,-0.0006033710795558711,-2.2079494760034137,3.304462042075542,1.758174998757458,0.5204476921405323,10.244826185555615,False,4.74,25.831592369631387,50,0.06,0.138,0.034
10,1747220634.7548335,6,-3,-4.700000000000001,-4.115288257598877,-0.05521007999777794,2.3629150390625,-1.8783152103424072,0.48832419514656067,1.396458625793457,-0.17250357568264008,0.18363386392593384,-9.816627502441406,0.0007295986847366665,7.582182429516558e-05,-2.209616461534758,3.3576281616803936,1.776496226282703,0.5370843463693316,12.683675061127971,False,4.74,38.51526743075936,50,0.06,0.138,0.034
10,1747220635.2589493,8,-3,-4.600000000000001,-5.112129211425781,0.20129932463169098,2.568939208984375,-1.9599558115005493,0.5165817141532898,1.4657384157180786,-0.12644313275814056,0.04404905065894127,-9.354446411132812,3.739490953630106e-05,0.0003014662702212628,-2.2121474589046124,3.027965142722262,2.2494441313195006,0.41259529304253806,15.282995099296674,False,4.74,53.798262530056036,50,0.06,0.138,0.034
10,1747220635.7627964,10,-3,-4.500000000000002,-6.078591346740723,0.4516502320766449,2.7720108032226562,-2.0081491470336914,0.5321961045265198,1.5431336164474487,-0.17882636189460754,0.19242224097251892,-9.825729370117188,0.0007473093870742434,0.0006428105363044049,-2.2127848537746813,2.7077725911396717,2.3584477078696713,0.4335470543233011,17.981021387626107,False,4.74,71.77928391768214,50,0.06,0.138,0.034
10,1747220636.2665586,12,-3,-4.400000000000002,-7.0100884437561035,0.6944789886474609,2.9757919311523438,-2.030480146408081,0.5308932065963745,1.6205973625183105,-0.0866110771894455,0.03230466693639755,-9.291749000549316,9.992426028953015e-05,0.0005796000598184068,-2.214614118062986,2.7082077498323462,1.73432863154738,0.4663283104874708,20.722812170374922,False,4.74,92.50209608805706,50,0.06,0.138,0.034
10,1747220636.7709954,14,-3,-4.3000000000000025,-7.954161643981934,0.9439927339553833,3.1785736083984375,-2.0464792251586914,0.5408005118370056,1.6935890913009644,-0.16481944918632507,0.05316133424639702,-9.305785179138184,0.0008200455114744928,0.0008020899562192093,-2.2147824414420763,2.524446264547924,2.20266770863151,0.4415108550815712,23.525929426737086,False,4.74,116.02802551479414,50,0.06,0.138,0.034
10,1747220638.2736547,16,-3,-4.200000000000003,-10.964792251586914,1.6955350637435913,3.2308120727539062,-2.249743700027466,0.5076147317886353,1.1872097253799438,-0.02503203973174095,0.032203804701566696,-9.814482688903809,0.0025621929804899354,0.0033429269427520153,-2.2126826529538506,3.0570822950282834,1.514295057127559,0.5572621850316886,28.361329989382945,False,4.74,144.38935550417708,50,0.06,0.138,0.034
10,1747220638.7771323,18,-3,-4.100000000000003,-12.130716323852539,1.9522072076797485,2.7765579223632812,-2.366729974746704,0.5026302337646484,0.833214282989502,0.055149711668491364,-0.056605465710163116,-9.839999198913574,0.0031642987873948436,0.0038778436568287335,-2.211405012771396,2.6768786520587304,1.5102788932642581,0.465443830189432,31.299704012592297,False,4.74,175.68905951676936,50,0.06,0.138,0.034
10,1747220639.2820616,20,-3,-4.0000000000000036,-13.327317237854004,2.201058864593506,2.1924591064453125,-2.476942539215088,0.4966227412223816,0.48482629656791687,-0.026300879195332527,-0.01732507534325123,-9.813419342041016,0.0037769175498622784,0.004511561160755796,-2.210153889217446,2.6522992639065146,2.493544513732078,0.4427135259529211,34.29442574778771,False,4.74,209.9834852645571,50,0.06,0.138,0.034
10,1747220639.7862062,22,-3,-3.9000000000000035,-14.590261459350586,2.451575994491577,1.5484695434570312,-2.5793957710266113,0.4903165400028229,0.16598492860794067,-0.026146959513425827,-0.036698322743177414,-9.748598098754883,0.0044012065452963805,0.005165589983778432,-2.2088898209012537,2.835173525429565,2.337539142588641,0.569674810576077,37.39321776543619,False,4.74,247.37670302999328,50,0.06,0.138,0.034
10,1747220640.2898924,24,-3,-3.8000000000000034,-15.967989921569824,2.7122979164123535,0.9080581665039062,-2.681504249572754,0.48594167828559875,-0.10249718278646469,0.007146971765905619,-0.04639577493071556,-9.787711143493652,0.005074756467124999,0.0057667468198878925,-2.2075910899448923,3.447670049954059,1.7922679411061657,0.48177330831509446,40.647710606573405,False,4.74,288.0244136365667,50,0.06,0.138,0.034
10,1747220640.7947667,26,-3,-3.7000000000000033,-17.322792053222656,2.957139492034912,0.39377593994140625,-2.7788779735565186,0.4808473289012909,-0.2825061082839966,0.003673052415251732,0.058497846126556396,-9.814933776855469,0.005651250807082722,0.006345048061664582,-2.2062176490394982,2.9698534911969907,1.562348877464352,0.5874158847776624,43.92164413658461,False,4.74,331.9460577731513,50,0.06,0.138,0.034
10,1747220641.298284,28,-3,-3.600000000000003,-18.70163345336914,3.1950416564941406,-0.00077056884765625,-2.8707163333892822,0.47354856133461,-0.39701470732688904,0.1094764769077301,-0.010268709622323513,-9.876172065734863,0.006174411827838013,0.006874044759790291,-2.204976947865509,3.3020565842867677,1.8067217825300557,0.4830673991026376,47.24802176638318,False,4.74,379.1940795395345,50,0.06,0.138,0.034
10,1747220641.8035624,30,-3,-3.500000000000003,-20.158781051635742,3.4333670139312744,-0.29036712646484375,-2.9664812088012695,0.4665764272212982,-0.4562896192073822,-0.03097272850573063,-0.02978949062526226,-9.842243194580078,0.006554417715371406,0.00723383298885269,-2.2037495928621187,2.621564983891399,1.7002244652324947,0.4900624091020117,50.6714245991244,False,4.74,429.86550413865893,50,0.06,0.138,0.034
10,1747220642.3071764,32,-3,-3.400000000000003,-21.646326065063477,3.663325071334839,-0.4771881103515625,-3.0611774921417236,0.46084335446357727,-0.4733666479587555,0.02509917877614498,0.032531145960092545,-9.83922004699707,0.006804948754653482,0.007547095214496015,-2.2024740128722846,3.012783710109872,2.0240490788663044,0.43414726649085605,54.1375196202011,False,4.74,484.00302375886,50,0.06,0.138,0.034
10,1747220642.8109064,34,-3,-3.300000000000003,-23.221410751342773,3.8933420181274414,-0.5883636474609375,-3.161473035812378,0.4544961154460907,-0.46352338790893555,-0.0031384120229631662,0.026852305978536606,-9.81500244140625,0.006896218715270905,0.0077888583628573805,-2.2011946855838627,3.25305532092487,2.481710256550174,0.47429862945244705,57.69888200183067,False,4.74,541.7019057606907,50,0.06,0.138,0.034
10,1747220643.3160176,36,-3,-3.200000000000003,-24.860490798950195,4.118675231933594,-0.6381072998046875,-3.266228199005127,0.44403189420700073,-0.4332088828086853,0.014241127297282219,0.04107079654932022,-9.822649955749512,0.006935175789357389,0.007861188605381016,-2.199905294356319,2.977910164631467,2.0592939170727256,0.43303819982844066,61.32893421179077,False,4.74,603.0308399724814,50,0.06,0.138,0.034
10,1747220643.8191102,38,-3,-3.1000000000000028,-26.533771514892578,4.33343505859375,-0.6435928344726562,-3.3705155849456787,0.43568339943885803,-0.39351192116737366,-0.0016729909693822265,-0.03590991720557213,-9.821861267089844,0.006864022352480351,0.007924293136848752,-2.1987085847365786,3.2532402568574783,1.5535319672369792,0.5105819253621876,64.99554501546876,False,4.74,668.0263849879502,50,0.06,0.138,0.034
10,1747220644.3233373,40,-3,-3.0000000000000027,-28.399612426757812,4.5574493408203125,-0.617431640625,-3.4854800701141357,0.42393457889556885,-0.345974862575531,-0.07591953873634338,-0.018248148262500763,-9.869852066040039,0.0067388641376562785,0.00792288753526749,-2.19736749577487,2.6581596314826412,2.3859047349319837,0.45057771520996476,68.85708861589228,False,4.74,736.8834736038425,50,0.06,0.138,0.034
11,1747220681.3604608,0,2,-5,-0.11322413384914398,2.4386303424835205,-4.800994873046875,0.28987428545951843,0.0972830057144165,0.5096994638442993,0.01716700755059719,0.06143273413181305,-9.20274543762207,-0.004959388028699751,0.0012756634192152346,-0.7344491689302204,2.6730237028501715,2.3278296369772327,0.5461168865664798,0.49479220121858103,True,3.72,0.49479220121858103,100,0.15,0.021,0.089
11,1747220683.3984802,2,2,-4.9,2.1947662830352783,1.7334798574447632,-4.7363739013671875,0.6706447005271912,-0.29279354214668274,-0.20718269050121307,-0.0044889431446790695,0.14946943521499634,-9.7640380859375,0.16148169530984072,-0.013996452439297459,-0.7244587928573543,3.2104548782687896,1.9963248165283303,0.48218869087996924,0.36842962903224397,True,3.72,0.863221830250825,100,0.15,0.021,0.089
11,1747220685.604217,4,2,-4.800000000000001,4.039833068847656,1.7454938888549805,-4.7674407958984375,0.27533772587776184,0.39801305532455444,-0.013564817607402802,0.011741530150175095,0.08265292644500732,-9.852299690246582,0.05363007755270454,-0.02720779490108682,-0.7124795371460335,2.7556495969897945,2.369379160796227,0.40035074575552376,0.2596538768355104,True,3.72,1.1228757070863353,100,0.15,0.021,0.089
11,1747220687.976119,6,2,-4.700000000000001,6.059347152709961,2.138268232345581,-4.61334228515625,0.5774158835411072,-0.20578400790691376,-0.06033424660563469,0.009748546406626701,0.06701796501874924,-9.889838218688965,0.09029021578450616,-0.042671750401504574,-0.7078147789524881,2.959252688787041,1.6019554444967197,0.4771747367079373,0.1736368283305471,True,3.72,1.2965125354168825,100,0.15,0.021,0.089
11,1747220690.0358894,8,2,-4.600000000000001,7.980257511138916,1.7291914224624634,-4.5377349853515625,0.5138626098632812,0.12951064109802246,-0.04615679010748863,0.05162055045366287,0.08273623138666153,-9.886898040771484,0.09635432181995211,-0.0059628057842104065,-0.6974303936853208,3.398308688908226,1.7579776376888963,0.46268393640169436,0.2785749155676159,True,3.72,1.5750874509844983,100,0.15,0.021,0.089
11,1747220692.2043152,10,2,-4.500000000000002,9.96437931060791,2.1011106967926025,-4.4253082275390625,0.599966824054718,0.060030367225408554,-0.04255881533026695,-0.03631896898150444,0.060471221804618835,-9.911541938781738,0.06794876752234523,-0.05128119166712316,-0.6913957457676753,2.755769330616427,2.396036118473398,0.5620606903650186,0.13065629488092056,True,3.72,1.7057437458654188,100,0.15,0.021,0.089
11,1747220694.2405188,12,2,-4.400000000000002,11.983673095703125,1.975097894668579,-4.3330230712890625,0.5919942259788513,-0.07810694724321365,-0.04578850418329239,0.02950161322951317,0.11561129987239838,-9.867032051086426,0.09616895493184945,-0.022674164122384245,-0.6851292518919804,2.82840382032149,1.936213363648549,0.5565412375845605,0.07329796472895264,True,3.72,1.7790417105943714,100,0.15,0.021,0.089
11,1747220696.3419893,14,2,-4.3000000000000025,13.954535484313965,1.9092026948928833,-4.240043640136719,0.5568918585777283,0.11605766415596008,-0.03651292622089386,0.09209029376506805,0.011810462921857834,-9.915230751037598,0.08203964149091487,-0.024925418153295284,-0.6782841192826647,3.3783244508813635,1.5511092326665559,0.4630026481791152,0.1179234407967142,True,3.72,1.8969651513910857,100,0.15,0.021,0.089
11,1747220698.4642565,16,2,-4.200000000000003,15.976847648620605,2.083634614944458,-4.1352081298828125,0.5951322913169861,-0.01632341928780079,-0.03753390535712242,0.02532794699072838,0.11907155066728592,-9.893299102783203,0.0798010065381394,-0.03997565529958834,-0.6720025241469952,3.369610902447918,1.783176343247407,0.5174147855491451,0.10829943039825081,True,3.72,2.0052645817893366,100,0.15,0.021,0.089
11,1747220700.5046952,18,2,-4.100000000000003,17.979778289794922,1.9679853916168213,-4.039886474609375,0.5809712409973145,-0.007780904415994883,-0.03341265022754669,-0.010729219764471054,0.06366845220327377,-9.92170524597168,0.0921364882830463,-0.025988132480487505,-0.6659933902221329,3.392754798318359,2.3088714645494406,0.5410399553796728,0.07104568001248322,True,3.72,2.0763102618018197,100,0.15,0.021,0.089
11,1747220702.6081705,20,2,-4.0000000000000036,19.94822120666504,1.977530837059021,-3.9442520141601562,0.5745867490768433,0.0710703581571579,-0.03417011350393295,0.0718180239200592,0.029148034751415253,-9.879415512084961,0.08042792401032485,-0.03025833456550876,-0.6587175759300312,2.998057422266071,2.421616233784234,0.45729917584283375,0.07933312453000117,True,3.72,2.1556433863318207,100,0.15,0.021,0.089
11,1747220704.7110367,22,2,-3.9000000000000035,21.9730224609375,2.053323984146118,-3.839111328125,0.6027535200119019,-0.009938363917171955,-0.033479176461696625,-0.07685638964176178,0.07861247658729553,-9.948343276977539,0.08502132009201184,-0.03682452305057073,-0.6522401155865573,3.1355272593966426,2.2998328856822003,0.5379671357605577,0.08531509398568353,True,3.72,2.2409584803175044,100,0.15,0.021,0.089
11,1747220706.7476025,24,2,-3.8000000000000034,23.938146591186523,1.9553086757659912,-3.7457275390625,0.5947676301002502,0.013870966620743275,-0.03410811349749565,0.034494221210479736,0.040023766458034515,-9.83849811553955,0.08825930235178366,-0.019986054407324042,-0.6444928552215958,2.5363265244220177,1.5989173995422044,0.5402813971292921,0.09364111628899557,True,3.72,2.3345995966065,100,0.15,0.021,0.089
11,1747220708.8476896,26,2,-3.7000000000000033,25.959091186523438,2.006456136703491,-3.64312744140625,0.5964593291282654,0.05974366143345833,-0.033006202429533005,0.10311615467071533,-0.044306688010692596,-9.88598918914795,0.08270794904012363,-0.03265295957977136,-0.6356505979528689,3.349514612110026,1.9734255215221967,0.44804865768890545,0.07035410892189772,True,3.72,2.404953705528398,100,0.15,0.021,0.089
11,1747220710.9468014,28,2,-3.600000000000003,27.977659225463867,2.0263752937316895,-3.5430831909179688,0.5988292694091797,-0.004983751103281975,-0.033261988312006,0.020269863307476044,0.0012428797781467438,-9.876121520996094,0.08768954147150522,-0.029078482587523217,-0.6257257637214465,2.5778691206471938,1.9118282515112766,0.5301162866072053,0.06659046089634743,True,3.72,2.4715441664247453,100,0.15,0.021,0.089
11,1747220713.0097952,30,2,-3.500000000000003,29.938766479492188,1.982236623764038,-3.446624755859375,0.6108119487762451,0.030637716874480247,-0.032073382288217545,-0.04621928185224533,0.07322567701339722,-9.777066230773926,0.08627503263314971,-0.022460168946590062,-0.6139585504205294,2.563213252321169,1.8467728086204942,0.46209312790071694,0.0831504555378543,True,3.72,2.5546946219625997,100,0.15,0.021,0.089
11,1747220715.0913897,32,2,-3.400000000000003,31.951332092285156,2.0444343090057373,-3.3440170288085938,0.6229615211486816,0.010652543045580387,-0.02529776468873024,-0.02535434626042843,0.09174368530511856,-9.903807640075684,0.08582861362894308,-0.03173693903017062,-0.6027020907374401,2.686706005611318,2.1934881657014493,0.5444418085334571,0.08647003019298684,True,3.72,2.6411646521555867,100,0.15,0.021,0.089
11,1747220717.0880656,34,2,-3.300000000000003,33.953155517578125,2.0003843307495117,-3.2419052124023438,0.5416831374168396,-0.006794492248445749,-0.03806194290518761,0.03255881369113922,0.03849733620882034,-9.904610633850098,0.09001948671985491,-0.02057080502187192,-0.5935982915864714,2.7337650081559977,1.6733646743882207,0.5957672650983248,0.07462946864017934,True,3.72,2.715794120795766,100,0.15,0.021,0.089
11,1747220719.1904514,36,2,-3.200000000000003,35.91787338256836,1.9761860370635986,-3.1561813354492188,0.5294362902641296,0.06446098536252975,-0.03341221064329147,-0.011236149817705154,0.0016570575535297394,-9.900689125061035,0.08052294740279686,-0.019309416322571975,-0.5905377601840226,2.8545885005319827,1.8454646084620134,0.4627675434367091,0.09608309676792011,True,3.72,2.811877217563686,100,0.15,0.021,0.089
11,1747220721.4167254,38,2,-3.1000000000000028,38.02665328979492,2.0996992588043213,-3.0523452758789062,0.7097159028053284,0.035537008196115494,-0.026479696854948997,0.04040010645985603,0.0388103649020195,-9.982373237609863,0.09291167501667663,-0.0477015601961842,-0.5767278553289846,2.5473036336686006,1.801905012007715,0.46343728563473696,0.11367195253922992,True,3.72,2.925549170102916,100,0.15,0.021,0.089
11,1747220723.286082,40,2,-3.0000000000000027,39.97987365722656,2.0031421184539795,-2.954071044921875,0.6010005474090576,-0.07203704863786697,-0.017989693209528923,0.027763571590185165,0.11140298843383789,-9.885732650756836,0.10106792359305969,-0.016980761202375776,-0.5698785487105178,3.166272006601065,1.9059487961564558,0.4526023802440585,0.050243521934488306,True,3.72,2.975792692037404,100,0.15,0.021,0.089
12,1747220737.9991722,0,-3,-3,0.8133280873298645,-2.3629467487335205,-5.247840881347656,0.3064877390861511,-0.11783716827630997,0.5862210988998413,0.08268073201179504,0.09062179177999496,-9.377190589904785,-0.00491037383626086,0.003107603088975405,-0.34849913737218957,2.7211862919818537,1.912533058948933,0.5278407181576517,2.4738892558978174,False,5.82,2.4738892558978174,50,0.19,0.012,0.193
12,1747220738.503291,2,-3,-2.9,1.1901816129684448,-2.4126193523406982,-4.899742126464844,0.49150463938713074,-0.23836274445056915,0.733456552028656,0.006531892344355583,0.04204560071229935,-9.634395599365234,-0.0014410207018670136,0.0011973434668600279,-0.34586826371802315,3.2983315218992004,1.5475980732278825,0.573803361799716,2.2360211129542553,False,5.82,4.709910368852073,50,0.19,0.012,0.193
12,1747220739.0074883,4,-3,-2.8,1.634406328201294,-2.509514093399048,-4.516883850097656,0.6396669149398804,-0.3502674102783203,0.7646235227584839,0.047185320407152176,0.04408133774995804,-9.770708084106445,-0.0011299674919342845,0.0007301241007701213,-0.34408471743555274,2.9405401623088183,1.610510863860263,0.4333398768341892,2.9638319789344325,False,5.82,7.673742347786506,50,0.19,0.012,0.193
12,1747220739.512162,6,-3,-2.6999999999999997,2.1075336933135986,-2.684828042984009,-4.10491943359375,0.744498074054718,-0.4688159227371216,0.7513712644577026,0.06308083981275558,0.07451413571834564,-9.877044677734375,-0.0007179410671114638,0.00044484997696174754,-0.3433868746594603,2.63100530033254,2.426293964292152,0.48320927793902446,4.150232032798594,False,5.82,11.8239743805851,50,0.19,0.012,0.193
12,1747220740.016672,8,-3,-2.5999999999999996,2.5639760494232178,-2.9416487216949463,-3.701385498046875,0.8092759847640991,-0.611566424369812,0.7267932891845703,0.03314948454499245,0.051365431398153305,-9.932037353515625,-0.00037877011596859953,0.00018469066941724198,-0.3428748634818622,3.4454952357469506,1.6755942570142497,0.5979101563331877,5.546783867993434,False,5.82,17.370758248578532,50,0.19,0.012,0.193
12,1747220740.5202153,10,-3,-2.4999999999999996,3.011889934539795,-3.2902169227600098,-3.3014602661132812,0.8343783617019653,-0.7627965807914734,0.6969121098518372,0.07864461839199066,0.1727847456932068,-9.845861434936523,-0.0001709755634267939,-4.1105239689009235e-05,-0.3423561390589772,2.8675579041597685,1.7992379596131003,0.5221594773918581,7.039903884812697,False,5.82,24.410662133391227,50,0.19,0.012,0.193
12,1747220741.0240884,12,-3,-2.3999999999999995,3.4297995567321777,-3.718714475631714,-2.9225540161132812,0.8348151445388794,-0.9226788878440857,0.6738719940185547,0.06523022055625916,0.15827980637550354,-9.845878601074219,-3.4399783665259015e-05,-0.0001750719440245197,-0.3417540153942111,2.6870504645734337,1.6495606131954537,0.42075058009910893,8.616144661913857,False,5.82,33.026806795305085,50,0.19,0.012,0.193
12,1747220741.5295718,14,-3,-2.2999999999999994,3.8336074352264404,-4.239652156829834,-2.5506057739257812,0.8212928175926208,-1.0844868421554565,0.6559537053108215,-0.051663003861904144,0.1052090972661972,-9.787134170532227,8.087296946313491e-05,-0.00022962325665969895,-0.3412741655651217,2.7249066298517493,1.640130157953263,0.41025883615457315,10.244758586952692,False,5.82,43.271565382257776,50,0.19,0.012,0.193
12,1747220742.0349877,16,-3,-2.1999999999999993,4.238305568695068,-4.871490478515625,-2.170166015625,0.8048549294471741,-1.230732798576355,0.646555483341217,0.008487503975629807,0.16671203076839447,-9.82809829711914,0.00013817161739798924,-0.00015630069320741094,-0.34095300002322504,3.2864059996141823,2.4386932595625908,0.41998588060297753,11.90969447858289,False,5.82,55.18125986084067,50,0.19,0.012,0.193
12,1747220742.5391414,18,-3,-2.099999999999999,4.608911037445068,-5.544430255889893,-1.8157119750976562,0.7869709134101868,-1.3753557205200195,0.6465681791305542,0.023649154230952263,0.05971768498420715,-9.809123039245605,0.00017518256814902773,-0.0002303683732087633,-0.3404458028593088,3.499795031761701,1.9732917671533767,0.5071360821230417,13.633642529098791,False,5.82,68.81490238993946,50,0.19,0.012,0.193
12,1747220743.0437508,20,-3,-1.9999999999999991,4.963249683380127,-6.272941589355469,-1.4701156616210938,0.7616055607795715,-1.5218864679336548,0.6493241190910339,0.05993588641285896,0.08036957681179047,-9.866596221923828,0.00014834808478298095,-0.00010909281346435225,-0.3402727806856534,3.030058466034545,1.5717758623204148,0.5250031745399169,15.397947400343975,False,5.82,84.21284979028344,50,0.19,0.012,0.193
12,1747220743.5494275,22,-3,-1.899999999999999,5.318908214569092,-7.079255104064941,-1.1206283569335938,0.7445346713066101,-1.658212661743164,0.6497371792793274,-0.017979925498366356,0.046450212597846985,-9.840407371520996,0.00012403321839554913,-0.00011228367912649943,-0.3400736434568142,3.1914747070297844,1.7414821931317244,0.5640888714907379,17.19030440440269,False,5.82,101.40315419468612,50,0.19,0.012,0.193
12,1747220744.0531564,24,-3,-1.799999999999999,5.6728081703186035,-7.948930740356445,-0.7713165283203125,0.7304061651229858,-1.7872943878173828,0.6533002853393555,-0.012633446604013443,0.12620282173156738,-9.834589958190918,0.00010491306217656909,-8.189908471261364e-05,-0.34002293066773576,2.564485122846172,2.0196705373430075,0.5272679240606513,19.01147194510968,False,5.82,120.4146261397958,50,0.19,0.012,0.193
12,1747220744.5566347,26,-3,-1.6999999999999988,6.02293586730957,-8.862041473388672,-0.425048828125,0.7285049557685852,-1.903218388557434,0.6600160598754883,-0.028025291860103607,0.22119668126106262,-9.756135940551758,6.311737687649973e-05,-8.468398613704678e-05,-0.33988390025025816,2.840248371938548,2.091876183970397,0.4917916181103804,20.858382537675848,False,5.82,141.27300867747164,50,0.19,0.012,0.193
12,1747220745.0611262,28,-3,-1.5999999999999988,6.38366174697876,-9.849000930786133,-0.07202911376953125,0.7264097929000854,-2.0241050720214844,0.6607813239097595,0.014145845547318459,0.14358219504356384,-9.830836296081543,7.428091555944952e-05,-3.1917831084862096e-05,-0.33982856060733707,3.487155336071852,1.5266246268189942,0.5933190395541592,22.726847301112986,False,5.82,163.99985597858463,50,0.19,0.012,0.193
12,1747220745.5664885,30,-3,-1.4999999999999987,6.743995666503906,-10.876543045043945,0.2742919921875,0.7315953969955444,-2.1442246437072754,0.6605138182640076,0.02070041373372078,0.09031646698713303,-9.81181526184082,-5.915792974935174e-06,-3.192863796055235e-06,-0.3397888387335121,3.2610836848531863,1.515324489860757,0.4014320542830896,24.61767210711768,False,5.82,188.6175280857023,50,0.19,0.012,0.193
12,1747220746.0712512,32,-3,-1.3999999999999986,7.139218330383301,-12.042187690734863,0.6455154418945312,0.7405237555503845,-2.2662222385406494,0.6626158356666565,0.06545057892799377,0.16328616440296173,-9.871177673339844,-3.608583801826108e-05,7.586204984672447e-05,-0.33986536410639706,3.225088683893863,1.5329069208860977,0.4611110625820211,26.53306911915498,False,5.82,215.1505972048573,50,0.19,0.012,0.193
12,1747220746.5763273,34,-3,-1.2999999999999985,7.524582862854004,-13.205297470092773,0.9980697631835938,0.7554972171783447,-2.3719277381896973,0.6652159094810486,-0.08028499782085419,0.169111967086792,-9.800457000732422,-5.065355500829703e-05,-1.4221688675254115e-05,-0.3398722710917727,2.7953408590441944,1.9150427832691435,0.5935472762909598,28.467120220974664,False,5.82,243.61771742583196,50,0.19,0.012,0.193
12,1747220747.0798285,36,-3,-1.1999999999999984,7.920387268066406,-14.421871185302734,1.3497467041015625,0.7780853509902954,-2.468578338623047,0.662926197052002,0.020010318607091904,0.1552489995956421,-9.861679077148438,-4.7289678347330504e-05,-1.6339940212280255e-05,-0.33993672825192717,3.190248401654362,2.142116794267907,0.4149638223050132,30.420798819296195,False,5.82,274.03851624512816,50,0.19,0.012,0.193
12,1747220747.58483,38,-3,-1.0999999999999983,8.3180570602417,-15.6682710647583,1.6949996948242188,0.7916461825370789,-2.5753543376922607,0.6678275465965271,-0.017288105562329292,0.0702238529920578,-9.771073341369629,-5.207788123381348e-05,6.332531944827536e-05,-0.33992005730738023,2.5981977289946916,1.7871151728266592,0.4236169976298501,32.39312969972688,False,5.82,306.43164594485506,50,0.19,0.012,0.193
12,1747220748.0891623,40,-3,-0.9999999999999983,8.730652809143066,-16.98666763305664,2.047515869140625,0.8083749413490295,-2.6782562732696533,0.6671619415283203,-0.05044974759221077,0.20087644457817078,-9.8150053024292,-9.960599121726027e-05,4.019091254110949e-05,-0.33993374516129027,3.1252583406312144,1.6459736445136595,0.5844233686457193,34.39020642846755,False,5.82,340.8218523733226,50,0.19,0.012,0.193
13,1747220811.5012987,2.0,0.0,-5.0,416.71588134765625,-666.4576416015625,411.5722961425781,-57.72597122192383,6.116090297698975,39.601158142089844,5.513844013214111,-5.711702346801758,-6.9033026695251465,0.0008922980659872941,0.0001893494801801554,-2.832099996368759,3.3102793792202605,1.91096209911389,0.5236070742019612,888.6436452282658,False,5.69,888.6436452282658,100,0.12,0.037,0.182
13,1747220812.005995,2.197817453308123,0.7779369011450796,-4.5,522.5370483398438,-741.57421875,431.4641418457031,-25.514333724975586,-14.498452186584473,25.834875106811523,5.215580463409424,-5.687479496002197,-5.761860370635986,0.000525612812993506,6.408922155518853e-05,-2.8316744256652893,3.158452583889771,1.68627162372054,0.5030826555976293,1005.9345759912787,False,5.69,1894.5782212195445,100,0.12,0.037,0.182
13,1747220812.5115662,2.1482208132215868,1.6646321509654174,-4.0,515.013427734375,-752.0755004882812,394.8227233886719,-27.994409561157227,-12.875025749206543,26.615264892578125,5.25496244430542,-5.83531379699707,-5.396844387054443,0.00191383911717285,0.0026979072067891637,-2.8343675663364643,3.180251073296879,2.1352806837717178,0.4618354252005661,995.0952078632796,False,5.69,2889.673429082824,100,0.12,0.037,0.182
13,1747220813.0152705,1.8081204253903274,2.5673112991572866,-3.5,502.3625793457031,-759.05517578125,407.3338317871094,-30.706928253173828,-11.012548446655273,28.040056228637695,4.931099891662598,-5.753517150878906,-5.917555809020996,0.0006852673776142215,0.0009658775140625826,-2.8372738341897605,2.604311898992024,1.8752731098690902,0.5052977203020338,999.7039644376885,False,5.69,3889.3773935205127,100,0.12,0.037,0.182
13,1747220813.5208824,1.169091277972464,3.3787959956614535,-3.0,487.2984924316406,-764.615966796875,421.13482666015625,-33.5016975402832,-8.944247245788574,29.55146598815918,4.880819797515869,-5.842670917510986,-5.8498148918151855,0.002409815896332339,0.0035659559684191326,-2.845054214899715,2.687430400649301,1.8911582156322808,0.556257883025879,1003.009522152621,False,5.69,4892.386915673133,100,0.12,0.037,0.182
13,1747220814.0270486,0.2615553275524854,3.9902132901341303,-2.5,468.9561462402344,-768.8035278320312,435.6766662597656,-36.73234176635742,-6.4906005859375,30.666418075561523,4.910149097442627,-6.043115615844727,-5.551804542541504,0.0013029565191274432,0.00191075761331903,-2.84694746069407,3.1428723128974254,1.8377236566566086,0.5584664373389645,1004.4319671948522,False,5.69,5896.818882867986,100,0.12,0.037,0.182
13,1747220814.5304434,-0.8455795490339945,4.30472606629093,-2.0,449.75872802734375,-771.4617919921875,449.3194885253906,-39.784786224365234,-4.117032527923584,31.34821128845215,4.782042503356934,-6.110659599304199,-5.866993427276611,0.0025302333957297005,0.004068797457554649,-2.8492756171864677,3.1025887843759348,1.8027191468730828,0.5941171518300687,1004.2645135967828,False,5.69,6901.083396464768,100,0.12,0.037,0.182
13,1747220815.0343895,-2.049999999999999,4.250704155516198,-1.5,429.6349182128906,-773.0003051757812,462.6783142089844,-42.68264389038086,-1.80307936668396,31.824087142944336,4.886830806732178,-6.191762924194336,-6.303529262542725,0.004186904283883948,0.006873470293734522,-2.8537693255156946,3.360163270001692,2.1945573661890982,0.42470713725963216,1002.9618674211325,False,5.69,7904.045263885901,100,0.12,0.037,0.182
13,1747220815.5375764,-3.2254282360512363,3.792760046192045,-1.0,408.2419738769531,-773.6287231445312,476.0778503417969,-45.29161071777344,0.42381247878074646,31.543563842773438,4.7476301193237305,-6.170131206512451,-7.580516815185547,0.006324864991259704,0.010649480258896558,-2.861385179230686,2.9975266783115755,2.18447820788219,0.5470417636347767,1000.6462216062373,False,5.69,8904.691485492138,100,0.12,0.037,0.182
13,1747220816.0409334,-4.234553679141369,2.939253573852523,-0.5,386.80938720703125,-773.5204467773438,488.7215881347656,-47.443843841552734,2.4424920082092285,30.537784576416016,4.8766279220581055,-6.151442050933838,-8.949312210083008,0.008502582437645505,0.014223680825706625,-2.872643780984458,2.788623079247575,2.3985486603236668,0.5282717980503229,997.5684398929029,False,5.69,9902.25992538504,100,0.12,0.037,0.182
13,1747220816.5440059,-4.944154131125643,1.7452113308808737,0.0,364.9356689453125,-772.829345703125,500.87109375,-49.195499420166016,4.3903961181640625,29.027393341064453,4.811423301696777,-6.371819496154785,-9.792304039001465,0.009765952954805292,0.016210901392449545,-2.8858317369373396,3.237304024496632,2.480865693688557,0.5574515300562175,993.8051521690784,False,5.69,10896.065077554118,100,0.12,0.037,0.182
13,1747220817.0477479,-5.240803378993181,0.3100759892662778,0.5,343.5186767578125,-771.6201782226562,511.9497985839844,-50.516387939453125,6.183926582336426,26.889970779418945,4.701297760009766,-6.332695007324219,-10.766767501831055,0.009819979504439063,0.016229435386678103,-2.8998187595904272,3.3012341360060318,2.2966104510774095,0.5789771250174963,989.4899639837569,False,5.69,11885.555041537875,100,0.12,0.037,0.182
13,1747220818.5501587,-5.045425660253547,-1.2297489390583247,1.0,276.5079650878906,-763.9511108398438,540.2088623046875,-53.81322479248047,11.252080917358398,19.980300903320312,4.186848163604736,-5.869356155395508,-10.93524169921875,0.005276798612485205,0.010550474386748837,-2.9356213402483893,3.0187553938100775,1.8024450229448705,0.5054917895690105,975.5830999609831,False,5.69,12861.138141498857,100,0.12,0.037,0.182
13,1747220819.0549788,-4.325006043795975,-2.7130191528484255,1.5,251.27188110351562,-759.5923461914062,548.6934814453125,-55.112483978271484,13.019158363342285,18.335182189941406,4.145773887634277,-5.6971211433410645,-10.559237480163574,0.004104991954259608,0.009492557003074062,-2.945638544939996,3.1304480967427257,1.6299259611130668,0.5739455027491209,968.3061450563954,False,5.69,13829.444286555252,100,0.12,0.037,0.182
13,1747220819.5601726,-3.1000000000000028,-3.9693575034635176,2.0,226.55801391601562,-754.7752685546875,556.1435546875,-56.45969009399414,14.584222793579102,17.102462768554688,4.11211633682251,-5.584351062774658,-10.260525703430176,0.0033556347541335726,0.009078733358538206,-2.9555010266016444,3.2297192995053936,2.253653856053385,0.5431295184070102,961.0033291446007,False,5.69,14790.447615699853,100,0.12,0.037,0.182
13,1747220820.066146,-1.4463860707160447,-4.837031429181853,2.5,201.22035217285156,-749.4390869140625,562.930908203125,-57.66971969604492,16.031635284423828,15.711841583251953,3.7980411052703857,-5.240156173706055,-10.54186725616455,0.0027607792522605537,0.008885247064950443,-2.9662262449167893,2.9419191680153864,1.6041537307990172,0.5394495396676349,953.7236657921285,False,5.69,15744.171281491981,100,0.12,0.037,0.182
13,1747220820.571048,0.5081646363876857,-5.180985820832024,3.0,309.83734130859375,-868.0372314453125,567.9022216796875,-27.683534622192383,-14.558464050292969,11.47305679321289,3.6892805099487305,-5.276662349700928,-10.190616607666016,0.0012584310819912152,0.004306807354235225,-2.974817389880339,3.4090621360334765,1.5425728187336656,0.43246479854458514,1076.7172145983945,False,5.69,16820.888496090374,100,0.12,0.037,0.182
13,1747220821.0755503,2.593921273001407,-4.9092036153738485,3.5,299.0796203613281,-878.5300903320312,572.3104248046875,-28.71932029724121,-13.396267890930176,10.816730499267578,3.6708459854125977,-4.672906398773193,-9.73190975189209,0.0014407207415277927,0.0039828264111001046,-2.9873233919950506,2.929159237583692,1.7701068790573427,0.49253277845946863,1083.8184916479242,False,5.69,17904.7069877383,100,0.12,0.037,0.182
13,1747220821.5792043,4.613824533754626,-3.985552970263421,4.0,285.0992431640625,-885.4409790039062,577.180419921875,-30.44159698486328,-11.501755714416504,10.750798225402832,3.575282096862793,-4.496728897094727,-9.10822868347168,0.000771006729759271,0.0025829899843060953,-2.992888350743068,3.097522399739923,1.613199897721855,0.5969808774802723,1088.1964583337822,False,5.69,18992.903446072083,100,0.12,0.037,0.182
13,1747220822.0831442,6.362038562233158,-2.437564447089895,4.5,269.9779052734375,-891.4148559570312,582.1031494140625,-31.940902709960938,-9.770048141479492,10.463136672973633,3.416969060897827,-4.369966506958008,-9.761066436767578,0.002383717221028761,0.006357501821498248,-3.0111595360468613,2.8326604352754696,1.551351580232962,0.4631403022123442,1092.428189042783,False,5.69,20085.331635114868,100,0.12,0.037,0.182
13,1747220823.585581,7.6445824462891245,-0.35804139528723766,5.0,217.94308471679688,-901.6427612304688,595.1742553710938,-37.32173156738281,-4.213033199310303,9.821939468383789,3.4556355476379395,-3.8491156101226807,-9.570927619934082,0.001545310447729147,0.004378575491944238,-3.026159642849744,2.921925032389783,2.1479738861607425,0.5735719971614105,1097.6544346780663,False,5.69,21182.986069792933,100,0.12,0.037,0.182
14,1747220825.1710446,0,-4,-5,158.18820190429688,-906.5413818359375,605.7174072265625,-41.436317443847656,0.26045387983322144,7.749326705932617,3.1108853816986084,-3.5845859050750732,-10.356209754943848,0.003526410563045553,0.0059204418268237495,-3.0513550149041566,3.17835255228087,1.7151204148789843,0.5137292793964724,1101.172195724889,False,4.3,1101.172195724889,50,0.04,0.156,0.125
14,1747220825.6765952,2,-3.6,-5,137.1674346923828,-907.3416748046875,608.3878173828125,-42.43508529663086,1.5503884553909302,6.710811138153076,3.0496928691864014,-3.4940531253814697,-10.447315216064453,0.0037235002330154904,0.005733660043525517,-3.059085259969969,3.171657908046009,1.6764008441966138,0.47190594788103,1100.574334015541,False,4.3,2201.7465297404297,50,0.04,0.156,0.125
14,1747220826.1800241,4,-3.2,-5,117.73143768310547,-907.6900634765625,610.405517578125,-43.32836151123047,2.540926456451416,5.777826309204102,3.24599027633667,-3.119081735610962,-10.49868392944336,0.003201435923681514,0.004594392479672436,-3.0664345112745246,2.5205465106368647,2.402632396918251,0.46454559849277,1099.891388233812,False,4.3,3301.6379179742416,50,0.04,0.156,0.125
14,1747220826.6840057,6,-2.8000000000000003,-5,97.7309799194336,-907.6121826171875,612.0694580078125,-44.13844680786133,3.62870454788208,4.862711429595947,3.0493016242980957,-3.2602803707122803,-10.550580978393555,0.0038087607279579674,0.005014226091973452,-3.07276501341993,3.3986260374987394,2.0106916445712555,0.40433105587827056,1099.03338188406,False,4.3,4400.671299858302,50,0.04,0.156,0.125
14,1747220827.1877186,8,-2.4000000000000004,-5,76.45358276367188,-906.9411010742188,613.3997802734375,-44.87181091308594,4.7237043380737305,3.8637142181396484,2.9486162662506104,-2.9694912433624268,-10.599712371826172,0.0036956257367883587,0.0042771078276426944,-3.0783184878658703,3.156378477390801,1.693617356639514,0.43031346237836166,1097.8610043024476,False,4.3,5498.532304160749,50,0.04,0.156,0.125
14,1747220827.6909907,10,-2.0000000000000004,-5,56.044105529785156,-905.7089233398438,614.3021240234375,-45.55261993408203,5.762425899505615,3.1038787364959717,2.897383451461792,-2.9369957447052,-10.460183143615723,0.0035468092624923327,0.0038349251190255033,-3.0831510123523165,3.3718669864719018,1.8948307066215522,0.5234717834764622,1096.514933139553,False,4.3,6595.047237300302,50,0.04,0.156,0.125
14,1747220828.1961255,12,-1.6000000000000005,-5,35.78737258911133,-903.9320068359375,614.8677978515625,-46.16059112548828,6.714597702026367,2.359919548034668,2.725947380065918,-2.5640676021575928,-10.064623832702637,0.003385869651275558,0.0034159278868678153,-3.087155481189276,3.0200216854757103,1.729308378354053,0.5644363508860352,1094.9908567968087,False,4.3,7690.038094097111,50,0.04,0.156,0.125
14,1747220828.7005644,14,-1.2000000000000006,-5,14.944903373718262,-901.5426025390625,615.2186279296875,-46.81520462036133,7.645859241485596,1.9808908700942993,2.7560949325561523,-2.496877670288086,-9.723756790161133,0.0033365232251663757,0.002954670119043129,-3.090606349055694,2.8979158212067047,2.287744875661124,0.5431285260923754,1093.2926603705807,False,4.3,8783.330754467692,50,0.04,0.156,0.125
14,1747220829.2059731,16,-0.8000000000000006,-5,124.248046875,-1017.2886352539062,614.99072265625,-17.745941162109375,-16.731996536254883,1.0019387006759644,2.495361328125,-2.370790958404541,-8.549908638000488,0.0023774834076945557,0.00037600149948750273,-3.0931171333132443,3.114782018344365,1.592387131614021,0.4805748412890217,1195.5564735437722,False,4.3,9978.887228011465,50,0.04,0.156,0.125
14,1747220829.7102835,18,-0.4000000000000006,-5,117.90453338623047,-1027.4322509765625,614.919921875,-17.877477645874023,-15.998189926147461,1.054900884628296,2.679455280303955,-2.07810640335083,-9.477850914001465,0.01789522652486611,-0.0053144344991589145,-3.1119927391552875,2.6339136467576614,2.2757359902990375,0.5454549529911612,1203.7760879310617,False,4.3,11182.663315942526,50,0.04,0.156,0.125
14,1747220830.2145824,20,-5.551115123125783e-16,-5,109.76790618896484,-1035.4176025390625,615.1368408203125,-18.21643829345703,-14.901188850402832,0.8300032615661621,2.5417022705078125,-2.1157426834106445,-9.969537734985352,0.004314900864200594,-0.0006668850134742322,-3.129030615751489,3.448238348248487,2.071800129180843,0.5044778365300149,1210.2551755608768,False,4.3,12392.918491503402,50,0.04,0.156,0.125
14,1747220830.7180972,22,0.39999999999999947,-5,100.93009185791016,-1042.7742919921875,615.392578125,-18.809383392333984,-13.803853988647461,0.5945579409599304,2.276836633682251,-1.8797154426574707,-9.850300788879395,0.009674306637656465,-0.0005194973318792588,-3.1376201228047234,2.7517249362740523,1.7205497201766007,0.5480433373312017,1216.2769067390386,False,4.3,13609.19539824244,50,0.04,0.156,0.125
14,1747220831.223006,24,0.7999999999999995,-5,92.82685852050781,-1049.955810546875,615.5044555664062,-18.430749893188477,-12.979696273803711,0.2941979467868805,2.202418327331543,-1.7333338260650635,-9.86055850982666,0.020375051591664556,0.003648341451138614,3.1198953008129835,2.570231533432105,1.7522595810561636,0.522662090889901,1222.2318475762218,False,4.3,14831.427245818662,50,0.04,0.156,0.125
14,1747220831.726614,26,1.1999999999999995,-5,85.70574188232422,-1057.9495849609375,615.375732421875,-17.170543670654297,-12.759779930114746,-0.006292944308370352,1.9616619348526,-1.7553309202194214,-9.389989852905273,0.02009280823564646,0.010231469552919143,3.0885604107573768,3.0692450494522223,1.7098078352040882,0.5929463771490372,1228.9136130398356,False,4.3,16060.340858858497,50,0.04,0.156,0.125
14,1747220832.23345,28,1.5999999999999996,-5,79.85111236572266,-1065.80712890625,615.232421875,-15.996487617492676,-12.875203132629395,-0.033306121826171875,1.7803326845169067,-1.8491090536117554,-9.168312072753906,0.015641444159422754,0.00973763508688281,3.058300777569055,3.4693038497053674,2.340907298658108,0.5175351190616713,1235.6110932807192,False,4.3,17295.951952139218,50,0.04,0.156,0.125
14,1747220832.7375622,30,1.9999999999999996,-5,74.14176177978516,-1073.6148681640625,615.2846069335938,-14.924895286560059,-12.905877113342285,-0.00664827274158597,1.309381365776062,-1.3637707233428955,-9.795936584472656,0.012593014555402616,0.005336045759369874,3.038249281287115,2.681604483573184,1.5787985388517363,0.5826647723396535,1242.4366516436078,False,4.3,18538.388603782827,50,0.04,0.156,0.125
14,1747220833.241104,32,2.3999999999999995,-5,68.7132568359375,-1080.6334228515625,615.489501953125,-13.997682571411133,-12.568910598754883,-0.13683903217315674,1.1105172634124756,-1.320244550704956,-10.154034614562988,0.011320540598749276,0.0010651594161401223,3.034517570456763,2.9550000211223493,1.7746034066238083,0.4994449918639083,1248.7259428213663,False,4.3,19787.114546604193,50,0.04,0.156,0.125
14,1747220833.7467566,34,2.7999999999999994,-5,63.491024017333984,-1086.923828125,615.7894897460938,-13.042716979980469,-11.867766380310059,-0.25954097509384155,0.8347920179367065,-1.2132117748260498,-10.270713806152344,0.011528875057024568,-0.002541832130493357,3.0535843933390354,3.404080393956521,1.753377805598622,0.5730944168232949,1254.4908659134235,False,4.3,21041.605412517616,50,0.04,0.156,0.125
